File: Reports and Data/Tensile testing/COMP PLA.is_qtest_Exports/COMP PLA_1.csv
Time,Displacement,Force
(s),(mm),(kN)
"0.0000","0.0000","-0.0001"
"0.2000","0.0137","0.0012"
"0.4000","0.0324","0.0034"
"0.6000","0.0496","0.0054"
"0.8000","0.0668","0.0072"
"1.0000","0.0835","0.0090"
"1.2000","0.1003","0.0107"
"1.4000","0.1173","0.0124"
"1.6000","0.1335","0.0140"
"1.8000","0.1503","0.0157"
"2.0000","0.1667","0.0172"
"2.2000","0.1835","0.0187"
"2.4000","0.2001","0.0203"
"2.6000","0.2169","0.0217"
"2.8000","0.2339","0.0232"
"3.0000","0.2504","0.0246"
"3.2000","0.2672","0.0260"
"3.4000","0.2835","0.0273"
"3.6000","0.3001","0.0286"
"3.8000","0.3167","0.0298"
"4.0000","0.3335","0.0311"
"4.2000","0.3504","0.0323"
"4.4000","0.3672","0.0335"
"4.6000","0.3839","0.0347"
"4.8000","0.4004","0.0359"
"5.0000","0.4168","0.0370"
"5.2000","0.4333","0.0381"
"5.4000","0.4501","0.0392"
"5.6000","0.4667","0.0402"
"5.8000","0.4836","0.0412"
"6.0000","0.5007","0.0423"
"6.2000","0.5169","0.0433"
"6.4000","0.5337","0.0442"
"6.6000","0.5501","0.0451"
"6.8000","0.5667","0.0460"
"7.0000","0.5832","0.0469"
"7.2000","0.6001","0.0478"
"7.4000","0.6169","0.0487"
"7.6000","0.6336","0.0496"
"7.8000","0.6507","0.0504"
"8.0000","0.6668","0.0512"
"8.2000","0.6836","0.0520"
"8.4000","0.7000","0.0528"
"8.6000","0.7167","0.0536"
"8.8000","0.7336","0.0543"
"9.0000","0.7503","0.0550"
"9.2000","0.7672","0.0557"
"9.4000","0.7837","0.0564"
"9.6000","0.8004","0.0571"
"9.8000","0.8167","0.0578"
"10.0000","0.8335","0.0584"
"10.2000","0.8500","0.0591"
"10.4000","0.8668","0.0597"
"10.6000","0.8837","0.0603"
"10.8000","0.9004","0.0609"
"11.0000","0.9172","0.0615"
"11.2000","0.9336","0.0621"
"11.4000","0.9503","0.0626"
"11.6000","0.9667","0.0632"
"11.8000","0.9833","0.0638"
"12.0000","1.0001","0.0643"
"12.2000","1.0169","0.0648"
"12.4000","1.0340","0.0654"
"12.6000","1.0504","0.0659"
"12.8000","1.0668","0.0664"
"13.0000","1.0835","0.0669"
"13.2000","1.1000","0.0675"
"13.4000","1.1167","0.0679"
"13.6000","1.1336","0.0684"
"13.8000","1.1501","0.0689"
"14.0000","1.1671","0.0694"
"14.2000","1.1839","0.0698"
"14.4000","1.2003","0.0703"
"14.6000","1.2168","0.0707"
"14.8000","1.2333","0.0711"
"15.0000","1.2500","0.0716"
"15.2000","1.2669","0.0720"
"15.4000","1.2837","0.0724"
"15.6000","1.3005","0.0728"
"15.8000","1.3172","0.0732"
"16.0000","1.3339","0.0736"
"16.2000","1.3501","0.0740"
"16.4000","1.3668","0.0744"
"16.6000","1.3833","0.0747"
"16.8000","1.4001","0.0751"
"17.0000","1.4172","0.0755"
"17.2000","1.4337","0.0758"
"17.4000","1.4505","0.0762"
"17.6000","1.4669","0.0765"
"17.8000","1.4835","0.0769"
"18.0000","1.5000","0.0772"
"18.2000","1.5168","0.0775"
"18.4000","1.5335","0.0778"
"18.6000","1.5503","0.0781"
"18.8000","1.5673","0.0785"
"19.0000","1.5837","0.0788"
"19.2000","1.6003","0.0791"
"19.4000","1.6167","0.0794"
"19.6000","1.6335","0.0797"
"19.8000","1.6499","0.0799"
"20.0000","1.6669","0.0802"
"20.2000","1.6836","0.0805"
"20.4000","1.7004","0.0808"
"20.6000","1.7173","0.0810"
"20.8000","1.7335","0.0813"
"21.0000","1.7501","0.0815"
"21.2000","1.7667","0.0818"
"21.4000","1.7833","0.0820"
"21.6000","1.8001","0.0823"
"21.8000","1.8169","0.0825"
"22.0000","1.8339","0.0828"
"22.2000","1.8505","0.0830"
"22.4000","1.8671","0.0832"
"22.6000","1.8835","0.0835"
"22.8000","1.9001","0.0837"
"23.0000","1.9167","0.0839"
"23.2000","1.9336","0.0841"
"23.4000","1.9504","0.0843"
"23.6000","1.9671","0.0845"
"23.8000","1.9840","0.0847"
"24.0000","2.0004","0.0849"
"24.2000","2.0169","0.0851"
"24.4000","2.0333","0.0853"
"24.6000","2.0499","0.0855"
"24.8000","2.0668","0.0857"
"25.0000","2.0836","0.0858"
"25.2000","2.1005","0.0860"
"25.4000","2.1169","0.0862"
"25.6000","2.1336","0.0864"
"25.8000","2.1501","0.0865"
"26.0000","2.1667","0.0867"
"26.2000","2.1833","0.0869"
"26.4000","2.2003","0.0870"
"26.6000","2.2169","0.0871"
"26.8000","2.2337","0.0873"
"27.0000","2.2505","0.0875"
"27.2000","2.2669","0.0876"
"27.4000","2.2836","0.0877"
"27.6000","2.3001","0.0879"
"27.8000","2.3168","0.0880"
"28.0000","2.3336","0.0882"
"28.2000","2.3503","0.0883"
"28.4000","2.3672","0.0884"
"28.6000","2.3837","0.0885"
"28.8000","2.4004","0.0886"
"29.0000","2.4168","0.0887"
"29.2000","2.4335","0.0888"
"29.4000","2.4500","0.0890"
"29.6000","2.4668","0.0891"
"29.8000","2.4837","0.0892"
"30.0000","2.5005","0.0893"
"30.2000","2.5172","0.0894"
"30.4000","2.5336","0.0895"
"30.6000","2.5501","0.0896"
"30.8000","2.5667","0.0897"
"31.0000","2.5835","0.0898"
"31.2000","2.6000","0.0899"
"31.4000","2.6169","0.0899"
"31.6000","2.6340","0.0900"
"31.8000","2.6504","0.0901"
"32.0000","2.6671","0.0902"
"32.2000","2.6835","0.0903"
"32.4000","2.7001","0.0903"
"32.6000","2.7165","0.0904"
"32.8000","2.7335","0.0905"
"33.0000","2.7501","0.0905"
"33.2000","2.7671","0.0906"
"33.4000","2.7840","0.0907"
"33.6000","2.8003","0.0907"
"33.8000","2.8169","0.0908"
"34.0000","2.8335","0.0908"
"34.2000","2.8500","0.0909"
"34.4000","2.8668","0.0910"
"34.6000","2.8836","0.0910"
"34.8000","2.9005","0.0910"
"35.0000","2.9171","0.0911"
"35.2000","2.9337","0.0911"
"35.4000","2.9501","0.0912"
"35.6000","2.9668","0.0912"
"35.8000","2.9833","0.0913"
"36.0000","3.0001","0.0913"
"36.2000","3.0171","0.0914"
"36.4000","3.0337","0.0914"
"36.6000","3.0505","0.0914"
"36.8000","3.0671","0.0915"
"37.0000","3.0835","0.0915"
"37.2000","3.1000","0.0915"
"37.4000","3.1168","0.0915"
"37.6000","3.1333","0.0915"
"37.8000","3.1504","0.0916"
"38.0000","3.1673","0.0916"
"38.2000","3.1837","0.0916"
"38.4000","3.2003","0.0916"
"38.6000","3.2167","0.0917"
"38.8000","3.2335","0.0917"
"39.0000","3.2500","0.0917"
"39.2000","3.2669","0.0917"
"39.4000","3.2836","0.0917"
"39.6000","3.3004","0.0917"
"39.8000","3.3173","0.0917"
"40.0000","3.3335","0.0918"
"40.2000","3.3503","0.0917"
"40.4000","3.3667","0.0918"
"40.6000","3.3833","0.0918"
"40.8000","3.4001","0.0918"
"41.0000","3.4169","0.0918"
"41.2000","3.4339","0.0918"
"41.4000","3.4504","0.0918"
"41.6000","3.4672","0.0918"
"41.8000","3.4833","0.0918"
"42.0000","3.5001","0.0918"
"42.2000","3.5167","0.0917"
"42.4000","3.5335","0.0918"
"42.6000","3.5504","0.0918"
"42.8000","3.5671","0.0917"
"43.0000","3.5839","0.0917"
"43.2000","3.6003","0.0918"
"43.4000","3.6168","0.0917"
"43.6000","3.6332","0.0917"
"43.8000","3.6501","0.0917"
"44.0000","3.6667","0.0917"
"44.2000","3.6836","0.0917"
"44.4000","3.7005","0.0917"
"44.6000","3.7171","0.0916"
"44.8000","3.7337","0.0916"
"45.0000","3.7501","0.0916"
"45.2000","3.7668","0.0915"
"45.4000","3.7832","0.0915"
"45.6000","3.8003","0.0915"
"45.8000","3.8169","0.0915"
"46.0000","3.8337","0.0915"
"46.2000","3.8507","0.0915"
"46.4000","3.8668","0.0914"
"46.6000","3.8836","0.0914"
"46.8000","3.9000","0.0914"
"47.0000","3.9167","0.0913"
"47.2000","3.9335","0.0913"
"47.4000","3.9503","0.0912"
"47.6000","3.9672","0.0912"
"47.8000","3.9837","0.0912"
"48.0000","4.0005","0.0912"
"48.2000","4.0167","0.0911"
"48.4000","4.0335","0.0911"
"48.6000","4.0500","0.0910"
"48.8000","4.0668","0.0910"
"49.0000","4.0837","0.0910"
"49.2000","4.1004","0.0910"
"49.4000","4.1172","0.0909"
"49.6000","4.1336","0.0909"
"49.8000","4.1501","0.0908"
"50.0000","4.1665","0.0908"
"50.2000","4.1835","0.0907"
"50.4000","4.2000","0.0907"
"50.6000","4.2171","0.0907"
"50.8000","4.2340","0.0906"
"51.0000","4.2504","0.0906"
"51.2000","4.2669","0.0906"
"51.4000","4.2835","0.0905"
"51.6000","4.3001","0.0904"
"51.8000","4.3167","0.0904"
"52.0000","4.3336","0.0904"
"52.2000","4.3504","0.0903"
"52.4000","4.3671","0.0903"
"52.6000","4.3839","0.0902"
"52.8000","4.4003","0.0902"
"53.0000","4.4169","0.0901"
"53.2000","4.4335","0.0901"
"53.4000","4.4500","0.0900"
"53.6000","4.4668","0.0900"
"53.8000","4.4836","0.0899"
"54.0000","4.5004","0.0899"
"54.2000","4.5171","0.0898"
"54.4000","4.5337","0.0898"
"54.6000","4.5500","0.0897"
"54.8000","4.5668","0.0896"
"55.0000","4.5833","0.0896"
"55.2000","4.6001","0.0895"
"55.4000","4.6169","0.0895"
"55.6000","4.6337","0.0894"
"55.8000","4.6505","0.0894"
"56.0000","4.6669","0.0893"
"56.2000","4.6836","0.0892"
"56.4000","4.7000","0.0891"
"56.6000","4.7167","0.0891"
"56.8000","4.7333","0.0891"
"57.0000","4.7503","0.0890"
"57.2000","4.7673","0.0889"
"57.4000","4.7837","0.0889"
"57.6000","4.8004","0.0888"
"57.8000","4.8168","0.0887"
"58.0000","4.8335","0.0887"
"58.2000","4.8500","0.0886"
"58.4000","4.8669","0.0885"
"58.6000","4.8835","0.0885"
"58.8000","4.9004","0.0885"
"59.0000","4.9173","0.0884"
"59.2000","4.9335","0.0883"
"59.4000","4.9503","0.0882"
"59.6000","4.9667","0.0881"
"59.8000","4.9833","0.0881"
"60.0000","5.0001","0.0880"
"60.2000","5.0169","0.0879"
"60.4000","5.0339","0.0878"
"60.6000","5.0504","0.0878"
"60.8000","5.0671","0.0877"
"61.0000","5.0835","0.0877"
"61.2000","5.1001","0.0876"
"61.4000","5.1168","0.0875"
"61.6000","5.1335","0.0874"
"61.8000","5.1504","0.0873"
"62.0000","5.1671","0.0873"
"62.2000","5.1839","0.0872"
"62.4000","5.2003","0.0871"
"62.6000","5.2168","0.0871"
"62.8000","5.2332","0.0870"
"63.0000","5.2500","0.0869"
"63.2000","5.2668","0.0869"
"63.4000","5.2836","0.0868"
"63.6000","5.3007","0.0867"
"63.8000","5.3171","0.0866"
"64.0000","5.3337","0.0866"
"64.2000","5.3501","0.0865"
"64.4000","5.3667","0.0864"
"64.6000","5.3832","0.0863"
"64.8000","5.4003","0.0862"
"65.0000","5.4169","0.0861"
"65.2000","5.4336","0.0861"
"65.4000","5.4507","0.0860"
"65.6000","5.4669","0.0859"
"65.8000","5.4836","0.0858"
"66.0000","5.5001","0.0857"
"66.2000","5.5167","0.0857"
"66.4000","5.5335","0.0856"
"66.6000","5.5503","0.0855"
"66.8000","5.5671","0.0854"
"67.0000","5.5837","0.0854"
"67.2000","5.6004","0.0853"
"67.4000","5.6168","0.0852"
"67.6000","5.6335","0.0851"
"67.8000","5.6500","0.0850"
"68.0000","5.6668","0.0850"
"68.2000","5.6837","0.0849"
"68.4000","5.7004","0.0848"
"68.6000","5.7172","0.0847"
"68.8000","5.7336","0.0846"
"69.0000","5.7501","0.0845"
"69.2000","5.7667","0.0845"
"69.4000","5.7835","0.0844"
"69.6000","5.8001","0.0843"
"69.8000","5.8169","0.0842"
"70.0000","5.8340","0.0841"
"70.2000","5.8504","0.0841"
"70.4000","5.8671","0.0840"
"70.6000","5.8835","0.0839"
"70.8000","5.9000","0.0838"
"71.0000","5.9165","0.0838"
"71.2000","5.9335","0.0836"
"71.4000","5.9503","0.0836"
"71.6000","5.9671","0.0835"
"71.8000","5.9840","0.0834"
"72.0000","6.0001","0.0833"
"72.2000","6.0169","0.0832"
"72.4000","6.0333","0.0832"
"72.6000","6.0500","0.0831"
"72.8000","6.0669","0.0830"
"73.0000","6.0836","0.0829"
"73.2000","6.1005","0.0829"
"73.4000","6.1171","0.0828"
"73.6000","6.1339","0.0827"
"73.8000","6.1500","0.0826"
"74.0000","6.1668","0.0825"
"74.2000","6.1833","0.0825"
"74.4000","6.2001","0.0824"
"74.6000","6.2171","0.0823"
"74.8000","6.2339","0.0822"
"75.0000","6.2505","0.0821"
"75.2000","6.2669","0.0820"
"75.4000","6.2835","0.0819"
"75.6000","6.2999","0.0819"
"75.8000","6.3168","0.0818"
"76.0000","6.3333","0.0817"
"76.2000","6.3503","0.0816"
"76.4000","6.3673","0.0815"
"76.6000","6.3837","0.0815"
"76.8000","6.4004","0.0814"
"77.0000","6.4168","0.0813"
"77.2000","6.4333","0.0812"
"77.4000","6.4499","0.0811"
"77.6000","6.4669","0.0811"
"77.8000","6.4836","0.0810"
"78.0000","6.5004","0.0809"
"78.2000","6.5173","0.0809"
"78.4000","6.5335","0.0807"
"78.6000","6.5503","0.0807"
"78.8000","6.5667","0.0806"
"79.0000","6.5833","0.0805"
"79.2000","6.6001","0.0804"
"79.4000","6.6171","0.0803"
"79.6000","6.6339","0.0803"
"79.8000","6.6505","0.0802"
"80.0000","6.6671","0.0801"
"80.2000","6.6835","0.0801"
"80.4000","6.7001","0.0800"
"80.6000","6.7167","0.0799"
"80.8000","6.7333","0.0798"
"81.0000","6.7503","0.0797"
"81.2000","6.7671","0.0797"
"81.4000","6.7839","0.0796"
"81.6000","6.8003","0.0795"
"81.8000","6.8168","0.0794"
"82.0000","6.8333","0.0794"
"82.2000","6.8501","0.0793"
"82.4000","6.8668","0.0792"
"82.6000","6.8836","0.0792"
"82.8000","6.9007","0.0791"
"83.0000","6.9171","0.0790"
"83.2000","6.9336","0.0789"
"83.4000","6.9500","0.0788"
"83.6000","6.9667","0.0788"
"83.8000","6.9832","0.0787"
"84.0000","7.0003","0.0786"
"84.2000","7.0169","0.0785"
"84.4000","7.0337","0.0785"
"84.6000","7.0505","0.0784"
"84.8000","7.0668","0.0783"
"85.0000","7.0835","0.0783"
"85.2000","7.1000","0.0782"
"85.4000","7.1168","0.0781"
"85.6000","7.1335","0.0781"
"85.8000","7.1504","0.0780"
"86.0000","7.1672","0.0779"
"86.2000","7.1837","0.0778"
"86.4000","7.2005","0.0778"
"86.6000","7.2168","0.0777"
"86.8000","7.2336","0.0776"
"87.0000","7.2500","0.0775"
"87.2000","7.2669","0.0775"
"87.4000","7.2837","0.0774"
"87.6000","7.3004","0.0773"
"87.8000","7.3173","0.0773"
"88.0000","7.3336","0.0772"
"88.2000","7.3501","0.0771"
"88.4000","7.3665","0.0770"
"88.6000","7.3835","0.0770"
"88.8000","7.4001","0.0769"
"89.0000","7.4169","0.0768"
"89.2000","7.4340","0.0768"
"89.4000","7.4504","0.0767"
"89.6000","7.4671","0.0767"
"89.8000","7.4835","0.0766"
"90.0000","7.5001","0.0765"
"90.2000","7.5165","0.0764"
"90.4000","7.5336","0.0764"
"90.6000","7.5503","0.0763"
"90.8000","7.5671","0.0762"
"91.0000","7.5840","0.0761"
"91.2000","7.6003","0.0761"
"91.4000","7.6169","0.0760"
"91.6000","7.6333","0.0760"
"91.8000","7.6500","0.0759"
"92.0000","7.6668","0.0758"
"92.2000","7.6837","0.0757"
"92.4000","7.7005","0.0757"
"92.6000","7.7171","0.0756"
"92.8000","7.7339","0.0755"
"93.0000","7.7501","0.0755"
"93.2000","7.7668","0.0754"
"93.4000","7.7832","0.0753"
"93.6000","7.8000","0.0753"
"93.8000","7.8169","0.0752"
"94.0000","7.8337","0.0752"
"94.2000","7.8507","0.0751"
"94.4000","7.8669","0.0751"
"94.6000","7.8836","0.0750"
"94.8000","7.8999","0.0749"
"95.0000","7.9168","0.0748"
"95.2000","7.9333","0.0748"
"95.4000","7.9503","0.0747"
"95.6000","7.9672","0.0747"
"95.8000","7.9837","0.0746"
"96.0000","8.0004","0.0745"
"96.2000","8.0168","0.0745"
"96.4000","8.0335","0.0744"
"96.6000","8.0499","0.0743"
"96.8000","8.0669","0.0742"
"97.0000","8.0836","0.0742"
"97.2000","8.1004","0.0741"
"97.4000","8.1173","0.0741"
"97.6000","8.1335","0.0740"
"97.8000","8.1503","0.0740"
"98.0000","8.1667","0.0739"
"98.2000","8.1835","0.0738"
"98.4000","8.2001","0.0738"
"98.6000","8.2169","0.0737"
"98.8000","8.2339","0.0736"
"99.0000","8.2504","0.0736"
"99.2000","8.2672","0.0735"
"99.4000","8.2835","0.0735"
"99.6000","8.3000","0.0734"
"99.8000","8.3167","0.0733"
"100.0000","8.3335","0.0732"
"100.2000","8.3504","0.0732"
"100.4000","8.3671","0.0732"
"100.6000","8.3839","0.0731"
"100.8000","8.4003","0.0730"
"101.0000","8.4168","0.0730"
"101.2000","8.4332","0.0729"
"101.4000","8.4500","0.0729"
"101.6000","8.4668","0.0728"
"101.8000","8.4836","0.0727"
"102.0000","8.5007","0.0727"
"102.2000","8.5171","0.0726"
"102.4000","8.5337","0.0725"
"102.6000","8.5501","0.0725"
"102.8000","8.5668","0.0724"
"103.0000","8.5832","0.0723"
"103.2000","8.6003","0.0723"
"103.4000","8.6171","0.0722"
"103.6000","8.6337","0.0722"
"103.8000","8.6507","0.0721"
"104.0000","8.6669","0.0721"
"104.2000","8.6836","0.0720"
"104.4000","8.7000","0.0719"
"104.6000","8.7167","0.0719"
"104.8000","8.7335","0.0718"
"105.0000","8.7503","0.0718"
"105.2000","8.7672","0.0717"
"105.4000","8.7837","0.0717"
"105.6000","8.8004","0.0716"
"105.8000","8.8168","0.0715"
"106.0000","8.8335","0.0715"
"106.2000","8.8500","0.0714"
"106.4000","8.8668","0.0714"
"106.6000","8.8837","0.0713"
"106.8000","8.9005","0.0712"
"107.0000","8.9172","0.0712"
"107.2000","8.9336","0.0711"
"107.4000","8.9501","0.0711"
"107.6000","8.9667","0.0710"
"107.8000","8.9833","0.0709"
"108.0000","9.0001","0.0709"
"108.2000","9.0169","0.0708"
"108.4000","9.0340","0.0708"
"108.6000","9.0504","0.0707"
"108.8000","9.0671","0.0707"
"109.0000","9.0835","0.0706"
"109.2000","9.1000","0.0705"
"109.4000","9.1167","0.0705"
"109.6000","9.1335","0.0704"
"109.8000","9.1503","0.0704"
"110.0000","9.1671","0.0703"
"110.2000","9.1840","0.0703"
"110.4000","9.2003","0.0702"
"110.6000","9.2169","0.0702"
"110.8000","9.2333","0.0701"
"111.0000","9.2500","0.0700"
"111.2000","9.2669","0.0700"
"111.4000","9.2836","0.0699"
"111.6000","9.3005","0.0699"
"111.8000","9.3171","0.0698"
"112.0000","9.3337","0.0698"
"112.2000","9.3501","0.0697"
"112.4000","9.3668","0.0696"
"112.6000","9.3833","0.0696"
"112.8000","9.4001","0.0695"
"113.0000","9.4171","0.0694"
"113.2000","9.4339","0.0694"
"113.4000","9.4505","0.0693"
"113.6000","9.4671","0.0693"
"113.8000","9.4835","0.0692"
"114.0000","9.5000","0.0691"
"114.2000","9.5167","0.0691"
"114.4000","9.5335","0.0690"
"114.6000","9.5503","0.0690"
"114.8000","9.5672","0.0689"
"115.0000","9.5837","0.0689"
"115.2000","9.6004","0.0688"
"115.4000","9.6168","0.0688"
"115.6000","9.6333","0.0687"
"115.8000","9.6500","0.0686"
"116.0000","9.6668","0.0686"
"116.2000","9.6836","0.0686"
"116.4000","9.7004","0.0685"
"116.6000","9.7173","0.0684"
"116.8000","9.7336","0.0683"
"117.0000","9.7503","0.0683"
"117.2000","9.7668","0.0682"
"117.4000","9.7833","0.0682"
"117.6000","9.8003","0.0681"
"117.8000","9.8169","0.0681"
"118.0000","9.8339","0.0681"
"118.2000","9.8504","0.0680"
"118.4000","9.8671","0.0679"
"118.6000","9.8835","0.0679"
"118.8000","9.9001","0.0678"
"119.0000","9.9168","0.0678"
"119.2000","9.9335","0.0677"
"119.4000","9.9504","0.0677"
"119.6000","9.9671","0.0676"
"119.8000","9.9839","0.0675"
"120.0000","10.0004","0.0675"
"120.2000","10.0168","0.0674"
"120.4000","10.0332","0.0674"
"120.6000","10.0501","0.0674"
"120.8000","10.0668","0.0673"
"121.0000","10.0836","0.0672"
"121.2000","10.1005","0.0672"
"121.4000","10.1171","0.0671"
"121.6000","10.1336","0.0671"
"121.8000","10.1501","0.0670"
"122.0000","10.1668","0.0669"
"122.2000","10.1832","0.0669"
"122.4000","10.2001","0.0668"
"122.6000","10.2169","0.0668"
"122.8000","10.2337","0.0667"
"123.0000","10.2507","0.0667"
"123.2000","10.2669","0.0666"
"123.4000","10.2836","0.0666"
"123.6000","10.3000","0.0665"
"123.8000","10.3167","0.0665"
"124.0000","10.3335","0.0664"
"124.2000","10.3503","0.0664"
"124.4000","10.3672","0.0663"
"124.6000","10.3837","0.0663"
"124.8000","10.4004","0.0662"
"125.0000","10.4168","0.0661"
"125.2000","10.4335","0.0661"
"125.4000","10.4500","0.0660"
"125.6000","10.4668","0.0660"
"125.8000","10.4837","0.0659"
"126.0000","10.5005","0.0659"
"126.2000","10.5172","0.0659"
"126.4000","10.5336","0.0658"
"126.6000","10.5501","0.0657"
"126.8000","10.5665","0.0657"
"127.0000","10.5835","0.0656"
"127.2000","10.6000","0.0656"
"127.4000","10.6169","0.0656"
"127.6000","10.6340","0.0655"
"127.8000","10.6504","0.0654"
"128.0000","10.6671","0.0654"
"128.2000","10.6835","0.0653"
"128.4000","10.7001","0.0653"
"128.6000","10.7167","0.0653"
"128.8000","10.7335","0.0652"
"129.0000","10.7501","0.0651"
"129.2000","10.7671","0.0651"
"129.4000","10.7840","0.0650"
"129.6000","10.8003","0.0650"
"129.8000","10.8168","0.0649"
"130.0000","10.8333","0.0649"
"130.2000","10.8500","0.0648"
"130.4000","10.8668","0.0648"
"130.6000","10.8836","0.0647"
"130.8000","10.9005","0.0647"
"131.0000","10.9171","0.0646"
"131.2000","10.9337","0.0646"
"131.4000","10.9500","0.0645"
"131.6000","10.9668","0.0644"
"131.8000","10.9833","0.0644"
"132.0000","11.0001","0.0644"
"132.2000","11.0171","0.0643"
"132.4000","11.0337","0.0643"
"132.6000","11.0507","0.0642"
"132.8000","11.0669","0.0642"
"133.0000","11.0836","0.0641"
"133.2000","11.1000","0.0640"
"133.4000","11.1168","0.0640"
"133.6000","11.1335","0.0639"
"133.8000","11.1503","0.0639"
"134.0000","11.1672","0.0639"
"134.2000","11.1837","0.0638"
"134.4000","11.2004","0.0637"
"134.6000","11.2168","0.0637"
"134.8000","11.2335","0.0636"
"135.0000","11.2500","0.0636"
"135.2000","11.2669","0.0635"
"135.4000","11.2836","0.0635"
"135.6000","11.3004","0.0635"
"135.8000","11.3173","0.0634"
"136.0000","11.3336","0.0633"
"136.2000","11.3503","0.0633"
"136.4000","11.3667","0.0632"
"136.6000","11.3835","0.0632"
"136.8000","11.4001","0.0631"
"137.0000","11.4169","0.0631"
"137.2000","11.4339","0.0630"
"137.4000","11.4504","0.0630"
"137.6000","11.4672","0.0630"
"137.8000","11.4833","0.0629"
"138.0000","11.5003","0.0628"
"138.2000","11.5167","0.0628"
"138.4000","11.5335","0.0627"
"138.6000","11.5503","0.0627"
"138.8000","11.5671","0.0627"
"139.0000","11.5839","0.0626"
"139.2000","11.6003","0.0625"
"139.4000","11.6169","0.0625"
"139.6000","11.6333","0.0625"
"139.8000","11.6501","0.0624"
"140.0000","11.6668","0.0623"
"140.2000","11.6837","0.0623"
"140.4000","11.7005","0.0623"
"140.6000","11.7169","0.0622"
"140.8000","11.7337","0.0621"
"141.0000","11.7501","0.0621"
"141.2000","11.7668","0.0620"
"141.4000","11.7832","0.0620"
"141.6000","11.8001","0.0619"
"141.8000","11.8169","0.0619"
"142.0000","11.8337","0.0618"
"142.2000","11.8507","0.0618"
"142.4000","11.8668","0.0617"
"142.6000","11.8836","0.0617"
"142.8000","11.9000","0.0616"
"143.0000","11.9168","0.0616"
"143.2000","11.9335","0.0615"
"143.4000","11.9503","0.0615"
"143.6000","11.9672","0.0615"
"143.8000","11.9837","0.0614"
"144.0000","12.0005","0.0614"
"144.2000","12.0167","0.0613"
"144.4000","12.0335","0.0612"
"144.6000","12.0500","0.0612"
"144.8000","12.0668","0.0612"
"145.0000","12.0837","0.0611"
"145.2000","12.1005","0.0611"
"145.4000","12.1172","0.0610"
"145.6000","12.1336","0.0610"
"145.8000","12.1501","0.0609"
"146.0000","12.1665","0.0609"
"146.2000","12.1835","0.0608"
"146.4000","12.2000","0.0608"
"146.6000","12.2169","0.0607"
"146.8000","12.2340","0.0607"
"147.0000","12.2504","0.0607"
"147.2000","12.2671","0.0606"
"147.4000","12.2835","0.0605"
"147.6000","12.3001","0.0605"
"147.8000","12.3165","0.0604"
"148.0000","12.3336","0.0604"
"148.2000","12.3503","0.0604"
"148.4000","12.3671","0.0603"
"148.6000","12.3840","0.0602"
"148.8000","12.4001","0.0602"
"149.0000","12.4168","0.0602"
"149.2000","12.4333","0.0601"
"149.4000","12.4500","0.0600"
"149.6000","12.4668","0.0600"
"149.8000","12.4836","0.0600"
"150.0000","12.5005","0.0599"
"150.2000","12.5172","0.0599"
"150.4000","12.5339","0.0598"
"150.6000","12.5500","0.0598"
"150.8000","12.5668","0.0597"
"151.0000","12.5833","0.0597"
"151.2000","12.6001","0.0596"
"151.4000","12.6171","0.0596"
"151.6000","12.6337","0.0595"
"151.8000","12.6505","0.0595"
"152.0000","12.6669","0.0594"
"152.2000","12.6835","0.0594"
"152.4000","12.6999","0.0594"
"152.6000","12.7168","0.0593"
"152.8000","12.7335","0.0592"
"153.0000","12.7504","0.0592"
"153.2000","12.7673","0.0591"
"153.4000","12.7837","0.0591"
"153.6000","12.8004","0.0590"
"153.8000","12.8168","0.0590"
"154.0000","12.8335","0.0590"
"154.2000","12.8499","0.0589"
"154.4000","12.8668","0.0589"
"154.6000","12.8835","0.0588"
"154.8000","12.9003","0.0587"
"155.0000","12.9175","0.0587"
"155.2000","12.9336","0.0587"
"155.4000","12.9503","0.0586"
"155.6000","12.9668","0.0586"
"155.8000","12.9833","0.0585"
"156.0000","13.0003","0.0585"
"156.2000","13.0171","0.0585"
"156.4000","13.0339","0.0584"
"156.6000","13.0504","0.0584"
"156.8000","13.0672","0.0583"
"157.0000","13.0833","0.0582"
"157.2000","13.1001","0.0582"
"157.4000","13.1167","0.0582"
"157.6000","13.1335","0.0581"
"157.8000","13.1504","0.0581"
"158.0000","13.1671","0.0580"
"158.2000","13.1839","0.0580"
"158.4000","13.2003","0.0580"
"158.6000","13.2169","0.0579"
"158.8000","13.2333","0.0579"
"159.0000","13.2501","0.0578"
"159.2000","13.2667","0.0578"
"159.4000","13.2837","0.0577"
"159.6000","13.3007","0.0577"
"159.8000","13.3171","0.0576"
"160.0000","13.3336","0.0576"
"160.2000","13.3501","0.0575"
"160.4000","13.3667","0.0575"
"160.6000","13.3833","0.0574"
"160.8000","13.4003","0.0574"
"161.0000","13.4169","0.0574"
"161.2000","13.4337","0.0573"
"161.4000","13.4507","0.0573"
"161.6000","13.4669","0.0572"
"161.8000","13.4835","0.0572"
"162.0000","13.5000","0.0572"
"162.2000","13.5167","0.0571"
"162.4000","13.5336","0.0571"
"162.6000","13.5504","0.0570"
"162.8000","13.5672","0.0570"
"163.0000","13.5837","0.0570"
"163.2000","13.6004","0.0569"
"163.4000","13.6167","0.0569"
"163.6000","13.6335","0.0568"
"163.8000","13.6500","0.0568"
"164.0000","13.6668","0.0567"
"164.2000","13.6837","0.0567"
"164.4000","13.7005","0.0566"
"164.6000","13.7172","0.0566"
"164.8000","13.7337","0.0566"
"165.0000","13.7501","0.0566"
"165.2000","13.7667","0.0565"
"165.4000","13.7833","0.0565"
"165.6000","13.8001","0.0564"
"165.8000","13.8169","0.0563"
"166.0000","13.8339","0.0563"
"166.2000","13.8504","0.0563"
"166.4000","13.8669","0.0562"
"166.6000","13.8835","0.0562"
"166.8000","13.9000","0.0561"
"167.0000","13.9167","0.0561"
"167.2000","13.9336","0.0560"
"167.4000","13.9503","0.0560"
"167.6000","13.9671","0.0560"
"167.8000","13.9840","0.0559"
"168.0000","14.0001","0.0559"
"168.2000","14.0168","0.0559"
"168.4000","14.0333","0.0558"
"168.6000","14.0500","0.0557"
"168.8000","14.0668","0.0557"
"169.0000","14.0837","0.0557"
"169.2000","14.1005","0.0556"
"169.4000","14.1172","0.0556"
"169.6000","14.1337","0.0555"
"169.8000","14.1500","0.0555"
"170.0000","14.1668","0.0555"
"170.2000","14.1833","0.0555"
"170.4000","14.2001","0.0554"
"170.6000","14.2171","0.0553"
"170.8000","14.2339","0.0553"
"171.0000","14.2505","0.0553"
"171.2000","14.2669","0.0552"
"171.4000","14.2835","0.0552"
"171.6000","14.3000","0.0551"
"171.8000","14.3167","0.0551"
"172.0000","14.3335","0.0551"
"172.2000","14.3503","0.0550"
"172.4000","14.3672","0.0550"
"172.6000","14.3837","0.0550"
"172.8000","14.4004","0.0550"
"173.0000","14.4168","0.0549"
"173.2000","14.4333","0.0548"
"173.4000","14.4500","0.0548"
"173.6000","14.4669","0.0547"
"173.8000","14.4836","0.0547"
"174.0000","14.5004","0.0547"
"174.2000","14.5173","0.0546"
"174.4000","14.5336","0.0546"
"174.6000","14.5501","0.0545"
"174.8000","14.5668","0.0545"
"175.0000","14.5833","0.0544"
"175.2000","14.6001","0.0545"
"175.4000","14.6169","0.0544"
"175.6000","14.6339","0.0544"
"175.8000","14.6505","0.0543"
"176.0000","14.6671","0.0543"
"176.2000","14.6833","0.0542"
"176.4000","14.7001","0.0542"
"176.6000","14.7167","0.0541"
"176.8000","14.7335","0.0541"
"177.0000","14.7504","0.0540"
"177.2000","14.7672","0.0540"
"177.4000","14.7839","0.0540"
"177.6000","14.8003","0.0540"
"177.8000","14.8168","0.0539"
"178.0000","14.8333","0.0539"
"178.2000","14.8501","0.0538"
"178.4000","14.8667","0.0538"
"178.6000","14.8836","0.0538"
"178.8000","14.9007","0.0538"
"179.0000","14.9171","0.0537"
"179.2000","14.9337","0.0537"
"179.4000","14.9501","0.0537"
"179.6000","14.9668","0.0536"
"179.8000","14.9832","0.0535"
"180.0000","15.0003","0.0535"
"180.2000","15.0169","0.0535"
"180.4000","15.0337","0.0534"
"180.6000","15.0507","0.0534"
"180.8000","15.0669","0.0533"
"181.0000","15.0836","0.0533"
"181.2000","15.1000","0.0533"
"181.4000","15.1167","0.0533"
"181.6000","15.1336","0.0532"
"181.8000","15.1503","0.0532"
"182.0000","15.1672","0.0531"
"182.2000","15.1839","0.0531"
"182.4000","15.2004","0.0531"
"182.6000","15.2167","0.0530"
"182.8000","15.2335","0.0530"
"183.0000","15.2500","0.0529"
"183.2000","15.2668","0.0529"
"183.4000","15.2837","0.0529"
"183.6000","15.3004","0.0528"
"183.8000","15.3172","0.0528"
"184.0000","15.3336","0.0527"
"184.2000","15.3501","0.0527"
"184.4000","15.3665","0.0527"
"184.6000","15.3835","0.0526"
"184.8000","15.4000","0.0526"
"185.0000","15.4169","0.0526"
"185.2000","15.4340","0.0525"
"185.4000","15.4503","0.0525"
"185.6000","15.4671","0.0525"
"185.8000","15.4833","0.0524"
"186.0000","15.5000","0.0524"
"186.2000","15.5165","0.0524"
"186.4000","15.5335","0.0523"
"186.6000","15.5503","0.0523"
"186.8000","15.5671","0.0522"
"187.0000","15.5840","0.0522"
"187.2000","15.6004","0.0521"
"187.4000","15.6169","0.0521"
"187.6000","15.6333","0.0520"
"187.8000","15.6500","0.0520"
"188.0000","15.6668","0.0520"
"188.2000","15.6837","0.0519"
"188.4000","15.7005","0.0519"
"188.6000","15.7171","0.0519"
"188.8000","15.7337","0.0519"
"189.0000","15.7501","0.0518"
"189.2000","15.7668","0.0518"
"189.4000","15.7833","0.0517"
"189.6000","15.8001","0.0517"
"189.8000","15.8171","0.0517"
"190.0000","15.8337","0.0516"
"190.2000","15.8505","0.0516"
"190.4000","15.8669","0.0516"
"190.6000","15.8835","0.0515"
"190.8000","15.8999","0.0515"
"191.0000","15.9168","0.0515"
"191.2000","15.9333","0.0514"
"191.4000","15.9503","0.0514"
"191.6000","15.9672","0.0514"
"191.8000","15.9837","0.0513"
"192.0000","16.0004","0.0512"
"192.2000","16.0168","0.0512"
"192.4000","16.0335","0.0512"
"192.6000","16.0499","0.0512"
"192.8000","16.0671","0.0511"
"193.0000","16.0836","0.0511"
"193.2000","16.1004","0.0510"
"193.4000","16.1173","0.0510"
"193.6000","16.1335","0.0510"
"193.8000","16.1503","0.0509"
"194.0000","16.1667","0.0509"
"194.2000","16.1833","0.0509"
"194.4000","16.2001","0.0508"
"194.6000","16.2169","0.0509"
"194.8000","16.2339","0.0508"
"195.0000","16.2504","0.0507"
"195.2000","16.2671","0.0507"
"195.4000","16.2835","0.0507"
"195.6000","16.3001","0.0506"
"195.8000","16.3167","0.0505"
"196.0000","16.3335","0.0505"
"196.2000","16.3504","0.0505"
"196.4000","16.3671","0.0505"
"196.6000","16.3839","0.0505"
"196.8000","16.4003","0.0504"
"197.0000","16.4169","0.0504"
"197.2000","16.4333","0.0503"
"197.4000","16.4501","0.0503"
"197.6000","16.4668","0.0503"
"197.8000","16.4837","0.0502"
"198.0000","16.5007","0.0502"
"198.2000","16.5171","0.0501"
"198.4000","16.5337","0.0501"
"198.6000","16.5501","0.0501"
"198.8000","16.5667","0.0501"
"199.0000","16.5832","0.0500"
"199.2000","16.6003","0.0500"
"199.4000","16.6171","0.0500"
"199.6000","16.6337","0.0499"
"199.8000","16.6507","0.0499"
"200.0000","16.6669","0.0499"
"200.2000","16.6836","0.0498"
"200.4000","16.7000","0.0498"
"200.6000","16.7167","0.0498"
"200.8000","16.7335","0.0497"
"201.0000","16.7501","0.0497"
"201.2000","16.7671","0.0496"
"201.4000","16.7837","0.0496"
"201.6000","16.8005","0.0496"
"201.8000","16.8167","0.0496"
"202.0000","16.8335","0.0495"
"202.2000","16.8500","0.0494"
"202.4000","16.8668","0.0494"
"202.6000","16.8837","0.0494"
"202.8000","16.9004","0.0494"
"203.0000","16.9172","0.0494"
"203.2000","16.9336","0.0493"
"203.4000","16.9501","0.0493"
"203.6000","16.9665","0.0492"
"203.8000","16.9835","0.0492"
"204.0000","17.0001","0.0492"
"204.2000","17.0169","0.0491"
"204.4000","17.0340","0.0491"
"204.6000","17.0504","0.0491"
"204.8000","17.0671","0.0490"
"205.0000","17.0835","0.0490"
"205.2000","17.1001","0.0489"
"205.4000","17.1165","0.0490"
"205.6000","17.1336","0.0489"
"205.8000","17.1503","0.0488"
"206.0000","17.1671","0.0489"
"206.2000","17.1840","0.0488"
"206.4000","17.2001","0.0488"
"206.6000","17.2168","0.0487"
"206.8000","17.2335","0.0487"
"207.0000","17.2500","0.0486"
"207.2000","17.2668","0.0486"
"207.4000","17.2836","0.0486"
"207.6000","17.3005","0.0486"
"207.8000","17.3171","0.0485"
"208.0000","17.3339","0.0485"
"208.2000","17.3501","0.0484"
"208.4000","17.3669","0.0484"
"208.6000","17.3833","0.0484"
"208.8000","17.4001","0.0484"
"209.0000","17.4169","0.0483"
"209.2000","17.4337","0.0483"
"209.4000","17.4505","0.0483"
"209.6000","17.4669","0.0482"
"209.8000","17.4835","0.0482"
"210.0000","17.5000","0.0482"
"210.2000","17.5168","0.0481"
"210.4000","17.5335","0.0481"
"210.6000","17.5503","0.0481"
"210.8000","17.5673","0.0480"
"211.0000","17.5837","0.0480"
"211.2000","17.6005","0.0480"
"211.4000","17.6168","0.0479"
"211.6000","17.6335","0.0479"
"211.8000","17.6500","0.0479"
"212.0000","17.6668","0.0478"
"212.2000","17.6836","0.0478"
"212.4000","17.7004","0.0478"
"212.6000","17.7172","0.0477"
"212.8000","17.7336","0.0477"
"213.0000","17.7503","0.0477"
"213.2000","17.7668","0.0477"
"213.4000","17.7833","0.0476"
"213.6000","17.8001","0.0476"
"213.8000","17.8169","0.0476"
"214.0000","17.8339","0.0476"
"214.2000","17.8504","0.0475"
"214.4000","17.8671","0.0475"
"214.6000","17.8835","0.0474"
"214.8000","17.9001","0.0474"
"215.0000","17.9167","0.0474"
"215.2000","17.9335","0.0473"
"215.4000","17.9504","0.0473"
"215.6000","17.9671","0.0473"
"215.8000","17.9839","0.0473"
"216.0000","18.0003","0.0472"
"216.2000","18.0169","0.0472"
"216.4000","18.0333","0.0472"
"216.6000","18.0501","0.0472"
"216.8000","18.0667","0.0471"
"217.0000","18.0836","0.0471"
"217.2000","18.1007","0.0470"
"217.4000","18.1171","0.0470"
"217.6000","18.1337","0.0470"
"217.8000","18.1501","0.0470"
"218.0000","18.1667","0.0469"
"218.2000","18.1833","0.0469"
"218.4000","18.2003","0.0469"
"218.6000","18.2169","0.0469"
"218.8000","18.2337","0.0468"
"219.0000","18.2507","0.0468"
"219.2000","18.2668","0.0468"
"219.4000","18.2836","0.0468"
"219.6000","18.3000","0.0467"
"219.8000","18.3167","0.0467"
"220.0000","18.3336","0.0467"
"220.2000","18.3503","0.0466"
"220.4000","18.3672","0.0466"
"220.6000","18.3837","0.0465"
"220.8000","18.4004","0.0465"
"221.0000","18.4167","0.0465"
"221.2000","18.4335","0.0465"
"221.4000","18.4500","0.0464"
"221.6000","18.4668","0.0464"
"221.8000","18.4837","0.0464"
"222.0000","18.5004","0.0464"
"222.2000","18.5172","0.0463"
"222.4000","18.5336","0.0463"
"222.6000","18.5501","0.0463"
"222.8000","18.5665","0.0463"
"223.0000","18.5835","0.0463"
"223.2000","18.6000","0.0462"
"223.4000","18.6169","0.0462"
"223.6000","18.6340","0.0461"
"223.8000","18.6504","0.0461"
"224.0000","18.6671","0.0461"
"224.2000","18.6835","0.0461"
"224.4000","18.7000","0.0460"
"224.6000","18.7165","0.0460"
"224.8000","18.7336","0.0460"
"225.0000","18.7503","0.0459"
"225.2000","18.7671","0.0459"
"225.4000","18.7840","0.0459"
"225.6000","18.8003","0.0459"
"225.8000","18.8168","0.0458"
"226.0000","18.8332","0.0458"
"226.2000","18.8500","0.0458"
"226.4000","18.8668","0.0457"
"226.6000","18.8837","0.0457"
"226.8000","18.9005","0.0457"
"227.0000","18.9172","0.0457"
"227.2000","18.9339","0.0456"
"227.4000","18.9500","0.0456"
"227.6000","18.9669","0.0456"
"227.8000","18.9833","0.0455"
"228.0000","19.0001","0.0455"
"228.2000","19.0171","0.0455"
"228.4000","19.0337","0.0455"
"228.6000","19.0505","0.0454"
"228.8000","19.0669","0.0454"
"229.0000","19.0835","0.0454"
"229.2000","19.0999","0.0454"
"229.4000","19.1167","0.0453"
"229.6000","19.1335","0.0453"
"229.8000","19.1503","0.0452"
"230.0000","19.1673","0.0453"
"230.2000","19.1837","0.0453"
"230.4000","19.2004","0.0452"
"230.6000","19.2168","0.0452"
"230.8000","19.2335","0.0452"
"231.0000","19.2499","0.0451"
"231.2000","19.2669","0.0451"
"231.4000","19.2836","0.0451"
"231.6000","19.3004","0.0450"
"231.8000","19.3172","0.0450"
"232.0000","19.3336","0.0450"
"232.2000","19.3503","0.0450"
"232.4000","19.3667","0.0449"
"232.6000","19.3833","0.0449"
"232.8000","19.4001","0.0449"
"233.0000","19.4171","0.0448"
"233.2000","19.4339","0.0448"
"233.4000","19.4504","0.0448"
"233.6000","19.4671","0.0448"
"233.8000","19.4833","0.0447"
"234.0000","19.5001","0.0447"
"234.2000","19.5167","0.0447"
"234.4000","19.5335","0.0447"
"234.6000","19.5504","0.0446"
"234.8000","19.5672","0.0446"
"235.0000","19.5839","0.0446"
"235.2000","19.6003","0.0445"
"235.4000","19.6168","0.0445"
"235.6000","19.6332","0.0445"
"235.8000","19.6501","0.0445"
"236.0000","19.6668","0.0444"
"236.2000","19.6836","0.0445"
"236.4000","19.7005","0.0444"
"236.6000","19.7169","0.0444"
"236.8000","19.7337","0.0444"
"236.9480","19.7457","0.0443"