File: Reports and Data/Tensile testing/TENSILE TEST.is_qtest_Exports/TENSILE TEST_1.csv
Time,Displacement,Force
(s),(mm),(kN)
"0.0000","0.0000","0.0000"
"1.0000","0.0835","0.0004"
"2.0000","0.1665","0.0009"
"3.0000","0.2505","0.0013"
"4.0000","0.3333","0.0018"
"5.0000","0.4169","0.0023"
"6.0000","0.5003","0.0027"
"7.0000","0.5832","0.0032"
"8.0000","0.6671","0.0036"
"9.0000","0.7501","0.0041"
"10.0000","0.8335","0.0045"
"11.0000","0.9172","0.0050"
"12.0000","1.0000","0.0054"
"13.0000","1.0833","0.0058"
"14.0000","1.1669","0.0063"
"15.0000","1.2500","0.0067"
"16.0000","1.3337","0.0071"
"17.0000","1.4168","0.0076"
"18.0000","1.4999","0.0080"
"19.0000","1.5837","0.0084"
"20.0000","1.6665","0.0089"
"21.0000","1.7503","0.0093"
"22.0000","1.8337","0.0097"
"23.0000","1.9165","0.0101"
"24.0000","2.0003","0.0105"
"25.0000","2.0835","0.0109"
"26.0000","2.1669","0.0113"
"27.0000","2.2505","0.0117"
"28.0000","2.3332","0.0121"
"29.0000","2.4168","0.0125"
"30.0000","2.5003","0.0129"
"31.0000","2.5833","0.0133"
"32.0000","2.6673","0.0137"
"33.0000","2.7501","0.0141"
"34.0000","2.8332","0.0145"
"35.0000","2.9171","0.0149"
"36.0000","3.0000","0.0152"
"37.0000","3.0836","0.0156"
"38.0000","3.1669","0.0160"
"39.0000","3.2499","0.0164"
"40.0000","3.3337","0.0167"
"41.0000","3.4167","0.0171"
"42.0000","3.5001","0.0175"
"43.0000","3.5839","0.0178"
"44.0000","3.6667","0.0182"
"45.0000","3.7501","0.0186"
"46.0000","3.8337","0.0189"
"47.0000","3.9168","0.0193"
"48.0000","4.0005","0.0197"
"49.0000","4.0833","0.0200"
"50.0000","4.1667","0.0204"
"51.0000","4.2504","0.0207"
"52.0000","4.3333","0.0211"
"53.0000","4.4169","0.0214"
"54.0000","4.5004","0.0218"
"55.0000","4.5832","0.0221"
"56.0000","4.6669","0.0225"
"57.0000","4.7501","0.0228"
"58.0000","4.8336","0.0232"
"59.0000","4.9172","0.0235"
"60.0000","5.0000","0.0238"
"61.0000","5.0835","0.0242"
"62.0000","5.1668","0.0245"
"63.0000","5.2500","0.0248"
"64.0000","5.3339","0.0251"
"65.0000","5.4168","0.0254"
"66.0000","5.5000","0.0257"
"67.0000","5.5837","0.0261"
"68.0000","5.6667","0.0263"
"69.0000","5.7504","0.0266"
"70.0000","5.8336","0.0270"
"71.0000","5.9167","0.0273"
"72.0000","6.0004","0.0276"
"73.0000","6.0833","0.0279"
"74.0000","6.1668","0.0282"
"75.0000","6.2505","0.0285"
"76.0000","6.3333","0.0288"
"77.0000","6.4168","0.0291"
"78.0000","6.5004","0.0294"
"79.0000","6.5835","0.0297"
"80.0000","6.6672","0.0300"
"81.0000","6.7501","0.0303"
"82.0000","6.8332","0.0305"
"83.0000","6.9169","0.0308"
"84.0000","7.0000","0.0311"
"85.0000","7.0836","0.0314"
"86.0000","7.1671","0.0317"
"87.0000","7.2497","0.0319"
"88.0000","7.3336","0.0322"
"89.0000","7.4168","0.0325"
"90.0000","7.5003","0.0328"
"91.0000","7.5839","0.0330"
"92.0000","7.6667","0.0333"
"93.0000","7.7501","0.0336"
"94.0000","7.8335","0.0339"
"95.0000","7.9167","0.0341"
"96.0000","8.0005","0.0344"
"97.0000","8.0836","0.0347"
"98.0000","8.1667","0.0350"
"99.0000","8.2504","0.0352"
"100.0000","8.3333","0.0355"
"101.0000","8.4169","0.0357"
"102.0000","8.5003","0.0360"
"103.0000","8.5833","0.0362"
"104.0000","8.6671","0.0365"
"105.0000","8.7500","0.0367"
"106.0000","8.8336","0.0370"
"107.0000","8.9172","0.0373"
"108.0000","9.0000","0.0375"
"109.0000","9.0833","0.0377"
"110.0000","9.1671","0.0380"
"111.0000","9.2500","0.0383"
"112.0000","9.3337","0.0385"
"113.0000","9.4167","0.0387"
"114.0000","9.5000","0.0390"
"115.0000","9.5837","0.0392"
"116.0000","9.6665","0.0394"
"117.0000","9.7503","0.0397"
"118.0000","9.8336","0.0400"
"119.0000","9.9165","0.0401"
"120.0000","10.0003","0.0404"
"121.0000","10.0835","0.0406"
"122.0000","10.1669","0.0408"
"123.0000","10.2505","0.0411"
"124.0000","10.3333","0.0413"
"125.0000","10.4168","0.0415"
"126.0000","10.5003","0.0417"
"127.0000","10.5833","0.0420"
"128.0000","10.6672","0.0422"
"129.0000","10.7501","0.0424"
"130.0000","10.8332","0.0426"
"131.0000","10.9171","0.0429"
"132.0000","11.0000","0.0431"
"133.0000","11.0836","0.0433"
"134.0000","11.1669","0.0435"
"135.0000","11.2499","0.0437"
"136.0000","11.3337","0.0439"
"137.0000","11.4168","0.0441"
"138.0000","11.5001","0.0443"
"139.0000","11.5839","0.0445"
"140.0000","11.6667","0.0448"
"141.0000","11.7500","0.0450"
"142.0000","11.8336","0.0452"
"143.0000","11.9168","0.0454"
"144.0000","12.0004","0.0456"
"145.0000","12.0835","0.0458"
"146.0000","12.1667","0.0460"
"147.0000","12.2504","0.0462"
"148.0000","12.3333","0.0464"
"149.0000","12.4171","0.0466"
"150.0000","12.5004","0.0468"
"151.0000","12.5831","0.0469"
"152.0000","12.6669","0.0471"
"153.0000","12.7500","0.0473"
"154.0000","12.8336","0.0475"
"155.0000","12.9172","0.0477"
"156.0000","12.9999","0.0479"
"157.0000","13.0835","0.0481"
"158.0000","13.1669","0.0483"
"159.0000","13.2500","0.0484"
"160.0000","13.3339","0.0486"
"161.0000","13.4168","0.0489"
"162.0000","13.5000","0.0490"
"163.0000","13.5837","0.0492"
"164.0000","13.6667","0.0494"
"165.0000","13.7503","0.0496"
"166.0000","13.8335","0.0497"
"167.0000","13.9165","0.0499"
"168.0000","14.0004","0.0500"
"169.0000","14.0835","0.0502"
"170.0000","14.1668","0.0504"
"171.0000","14.2505","0.0506"
"172.0000","14.3333","0.0508"
"173.0000","14.4167","0.0509"
"174.0000","14.5004","0.0511"
"175.0000","14.5835","0.0513"
"176.0000","14.6671","0.0514"
"177.0000","14.7500","0.0516"
"178.0000","14.8333","0.0517"
"179.0000","14.9171","0.0519"
"180.0000","15.0000","0.0521"
"181.0000","15.0836","0.0523"
"182.0000","15.1669","0.0524"
"183.0000","15.2499","0.0525"
"184.0000","15.3336","0.0527"
"185.0000","15.4168","0.0529"
"186.0000","15.5003","0.0530"
"187.0000","15.5839","0.0532"
"188.0000","15.6665","0.0533"
"189.0000","15.7501","0.0535"
"190.0000","15.8336","0.0537"
"191.0000","15.9167","0.0538"
"192.0000","16.0004","0.0540"
"193.0000","16.0836","0.0542"
"194.0000","16.1667","0.0543"
"195.0000","16.2504","0.0544"
"196.0000","16.3333","0.0546"
"197.0000","16.4169","0.0547"
"198.0000","16.5003","0.0549"
"199.0000","16.5833","0.0551"
"200.0000","16.6671","0.0552"
"201.0000","16.7500","0.0554"
"202.0000","16.8335","0.0555"
"203.0000","16.9173","0.0556"
"204.0000","17.0000","0.0558"
"205.0000","17.0833","0.0559"
"206.0000","17.1669","0.0561"
"207.0000","17.2500","0.0562"
"208.0000","17.3339","0.0563"
"209.0000","17.4168","0.0565"
"210.0000","17.5000","0.0566"
"211.0000","17.5837","0.0567"
"212.0000","17.6667","0.0569"
"213.0000","17.7503","0.0570"
"214.0000","17.8337","0.0571"
"215.0000","17.9165","0.0573"
"216.0000","18.0004","0.0574"
"217.0000","18.0835","0.0575"
"218.0000","18.1669","0.0576"
"219.0000","18.2505","0.0577"
"220.0000","18.3332","0.0579"
"221.0000","18.4168","0.0580"
"222.0000","18.5003","0.0581"
"223.0000","18.5833","0.0582"
"224.0000","18.6672","0.0584"
"225.0000","18.7501","0.0585"
"226.0000","18.8333","0.0586"
"227.0000","18.9171","0.0588"
"228.0000","19.0000","0.0589"
"229.0000","19.0836","0.0590"
"230.0000","19.1669","0.0591"
"231.0000","19.2499","0.0593"
"232.0000","19.3337","0.0594"
"233.0000","19.4168","0.0595"
"234.0000","19.5001","0.0596"
"235.0000","19.5839","0.0597"
"236.0000","19.6667","0.0599"
"237.0000","19.7500","0.0599"
"238.0000","19.8336","0.0601"
"239.0000","19.9168","0.0602"
"240.0000","20.0004","0.0603"
"241.0000","20.0835","0.0604"
"242.0000","20.1667","0.0605"
"243.0000","20.2504","0.0606"
"244.0000","20.3333","0.0608"
"245.0000","20.4169","0.0609"
"246.0000","20.5003","0.0610"
"247.0000","20.5831","0.0611"
"248.0000","20.6669","0.0612"
"249.0000","20.7501","0.0613"
"250.0000","20.8336","0.0614"
"251.0000","20.9172","0.0615"
"252.0000","21.0000","0.0616"
"253.0000","21.0835","0.0617"
"254.0000","21.1669","0.0618"
"255.0000","21.2499","0.0619"
"256.0000","21.3339","0.0620"
"257.0000","21.4168","0.0621"
"258.0000","21.5000","0.0622"
"259.0000","21.5837","0.0623"
"260.0000","21.6667","0.0624"
"261.0000","21.7503","0.0625"
"262.0000","21.8336","0.0626"
"263.0000","21.9167","0.0627"
"264.0000","22.0004","0.0628"
"265.0000","22.0835","0.0629"
"266.0000","22.1668","0.0630"
"267.0000","22.2505","0.0632"
"268.0000","22.3333","0.0632"
"269.0000","22.4167","0.0634"
"270.0000","22.5003","0.0634"
"271.0000","22.5835","0.0636"
"272.0000","22.6671","0.0636"
"273.0000","22.7500","0.0637"
"274.0000","22.8333","0.0639"
"275.0000","22.9171","0.0639"
"276.0000","23.0000","0.0640"
"277.0000","23.0836","0.0641"
"278.0000","23.1671","0.0642"
"279.0000","23.2499","0.0643"
"280.0000","23.3336","0.0644"
"281.0000","23.4168","0.0645"
"282.0000","23.5003","0.0646"
"283.0000","23.5837","0.0647"
"284.0000","23.6665","0.0648"
"285.0000","23.7501","0.0649"
"286.0000","23.8336","0.0650"
"287.0000","23.9168","0.0651"
"288.0000","24.0004","0.0651"
"289.0000","24.0836","0.0653"
"290.0000","24.1667","0.0653"
"291.0000","24.2504","0.0654"
"292.0000","24.3333","0.0655"
"293.0000","24.4171","0.0656"
"294.0000","24.5003","0.0657"
"295.0000","24.5832","0.0658"
"296.0000","24.6671","0.0659"
"297.0000","24.7501","0.0660"
"298.0000","24.8335","0.0661"
"299.0000","24.9172","0.0662"
"300.0000","25.0000","0.0662"
"301.0000","25.0835","0.0664"
"302.0000","25.1671","0.0664"
"303.0000","25.2501","0.0665"
"304.0000","25.3339","0.0666"
"305.0000","25.4168","0.0667"
"306.0000","25.5000","0.0668"
"307.0000","25.5837","0.0669"
"308.0000","25.6665","0.0669"
"309.0000","25.7503","0.0670"
"310.0000","25.8337","0.0672"
"311.0000","25.9165","0.0672"
"312.0000","26.0003","0.0673"
"313.0000","26.0835","0.0674"
"314.0000","26.1669","0.0675"
"315.0000","26.2505","0.0675"
"316.0000","26.3333","0.0676"
"317.0000","26.4168","0.0677"
"318.0000","26.5003","0.0678"
"319.0000","26.5833","0.0679"
"320.0000","26.6672","0.0680"
"321.0000","26.7501","0.0681"
"322.0000","26.8333","0.0681"
"323.0000","26.9171","0.0682"
"324.0000","27.0000","0.0683"
"325.0000","27.0837","0.0684"
"326.0000","27.1669","0.0685"
"327.0000","27.2500","0.0685"
"328.0000","27.3337","0.0686"
"329.0000","27.4168","0.0687"
"330.0000","27.5001","0.0688"
"331.0000","27.5840","0.0688"
"332.0000","27.6667","0.0689"
"333.0000","27.7501","0.0690"
"334.0000","27.8337","0.0690"
"335.0000","27.9168","0.0692"
"336.0000","28.0005","0.0692"
"337.0000","28.0833","0.0693"
"338.0000","28.1667","0.0694"
"339.0000","28.2504","0.0694"
"340.0000","28.3332","0.0696"
"341.0000","28.4169","0.0696"
"342.0000","28.5004","0.0697"
"343.0000","28.5832","0.0698"
"344.0000","28.6671","0.0698"
"345.0000","28.7501","0.0699"
"346.0000","28.8336","0.0700"
"347.0000","28.9172","0.0700"
"348.0000","28.9999","0.0702"
"349.0000","29.0835","0.0702"
"350.0000","29.1668","0.0703"
"351.0000","29.2499","0.0704"
"352.0000","29.3339","0.0704"
"353.0000","29.4168","0.0705"
"354.0000","29.5000","0.0706"
"355.0000","29.5837","0.0706"
"356.0000","29.6664","0.0707"
"357.0000","29.7503","0.0708"
"358.0000","29.8337","0.0709"
"359.0000","29.9167","0.0709"
"360.0000","30.0003","0.0710"
"361.0000","30.0835","0.0711"
"362.0000","30.1668","0.0711"
"363.0000","30.2505","0.0712"
"364.0000","30.3333","0.0713"
"365.0000","30.4168","0.0713"
"366.0000","30.5003","0.0714"
"367.0000","30.5833","0.0715"
"368.0000","30.6672","0.0716"
"369.0000","30.7500","0.0716"
"370.0000","30.8333","0.0717"
"371.0000","30.9171","0.0718"
"372.0000","30.9999","0.0718"
"373.0000","31.0836","0.0719"
"374.0000","31.1669","0.0720"
"375.0000","31.2499","0.0720"
"376.0000","31.3336","0.0721"
"377.0000","31.4168","0.0722"
"378.0000","31.5003","0.0722"
"379.0000","31.5839","0.0723"
"380.0000","31.6665","0.0724"
"381.0000","31.7501","0.0724"
"382.0000","31.8336","0.0725"
"383.0000","31.9167","0.0726"
"384.0000","32.0005","0.0726"
"385.0000","32.0835","0.0726"
"386.0000","32.1667","0.0728"
"387.0000","32.2504","0.0728"
"388.0000","32.3333","0.0729"
"389.0000","32.4169","0.0729"
"390.0000","32.5003","0.0730"
"391.0000","32.5832","0.0731"
"392.0000","32.6671","0.0731"
"393.0000","32.7500","0.0732"
"394.0000","32.8335","0.0732"
"395.0000","32.9172","0.0733"
"396.0000","33.0000","0.0733"
"397.0000","33.0833","0.0734"
"398.0000","33.1671","0.0735"
"399.0000","33.2500","0.0735"
"400.0000","33.3337","0.0736"
"401.0000","33.4168","0.0737"
"402.0000","33.5000","0.0737"
"403.0000","33.5837","0.0737"
"404.0000","33.6667","0.0738"
"405.0000","33.7503","0.0739"
"406.0000","33.8337","0.0739"
"407.0000","33.9165","0.0740"
"408.0000","34.0003","0.0741"
"409.0000","34.0835","0.0741"
"410.0000","34.1669","0.0742"
"411.0000","34.2505","0.0742"
"412.0000","34.3333","0.0743"
"413.0000","34.4168","0.0744"
"414.0000","34.5003","0.0744"
"415.0000","34.5833","0.0745"
"416.0000","34.6672","0.0745"
"417.0000","34.7503","0.0746"
"418.0000","34.8333","0.0746"
"419.0000","34.9171","0.0747"
"420.0000","35.0000","0.0748"
"421.0000","35.0836","0.0748"
"422.0000","35.1669","0.0749"
"423.0000","35.2499","0.0749"
"424.0000","35.3337","0.0750"
"425.0000","35.4168","0.0750"
"426.0000","35.5003","0.0751"
"427.0000","35.5839","0.0751"
"428.0000","35.6667","0.0752"
"429.0000","35.7501","0.0753"
"430.0000","35.8336","0.0753"
"431.0000","35.9168","0.0754"
"432.0000","36.0005","0.0754"
"433.0000","36.0833","0.0754"
"434.0000","36.1667","0.0755"
"435.0000","36.2504","0.0756"
"436.0000","36.3333","0.0757"
"437.0000","36.4169","0.0757"
"438.0000","36.5004","0.0757"
"439.0000","36.5831","0.0758"
"440.0000","36.6669","0.0758"
"441.0000","36.7501","0.0759"
"442.0000","36.8336","0.0759"
"443.0000","36.9172","0.0760"
"444.0000","37.0000","0.0760"
"445.0000","37.0835","0.0761"
"446.0000","37.1669","0.0762"
"447.0000","37.2499","0.0762"
"448.0000","37.3339","0.0762"
"449.0000","37.4168","0.0763"
"450.0000","37.5000","0.0764"
"451.0000","37.5837","0.0764"
"452.0000","37.6667","0.0765"
"453.0000","37.7503","0.0765"
"454.0000","37.8335","0.0765"
"455.0000","37.9165","0.0766"
"456.0000","38.0004","0.0766"
"457.0000","38.0833","0.0767"
"458.0000","38.1668","0.0768"
"459.0000","38.2505","0.0768"
"460.0000","38.3333","0.0769"
"461.0000","38.4167","0.0770"
"462.0000","38.5004","0.0770"
"463.0000","38.5835","0.0770"
"464.0000","38.6672","0.0770"
"465.0000","38.7501","0.0771"
"466.0000","38.8335","0.0772"
"467.0000","38.9171","0.0772"
"468.0000","39.0000","0.0772"
"469.0000","39.0836","0.0773"
"470.0000","39.1671","0.0774"
"471.0000","39.2499","0.0774"
"472.0000","39.3336","0.0775"
"473.0000","39.4168","0.0775"
"474.0000","39.5003","0.0776"
"475.0000","39.5839","0.0776"
"476.0000","39.6667","0.0777"
"477.0000","39.7500","0.0777"
"478.0000","39.8336","0.0778"
"479.0000","39.9165","0.0778"
"480.0000","40.0005","0.0779"
"481.0000","40.0836","0.0779"
"482.0000","40.1667","0.0779"
"483.0000","40.2504","0.0780"
"484.0000","40.3333","0.0780"
"485.0000","40.4169","0.0781"
"486.0000","40.5003","0.0782"
"487.0000","40.5832","0.0782"
"488.0000","40.6671","0.0782"
"489.0000","40.7501","0.0783"
"490.0000","40.8336","0.0783"
"491.0000","40.9172","0.0783"
"492.0000","41.0000","0.0784"
"493.0000","41.0833","0.0785"
"494.0000","41.1671","0.0785"
"495.0000","41.2501","0.0785"
"496.0000","41.3339","0.0785"
"497.0000","41.4168","0.0786"
"498.0000","41.5000","0.0787"
"499.0000","41.5839","0.0787"
"500.0000","41.6665","0.0787"
"501.0000","41.7503","0.0788"
"502.0000","41.8336","0.0788"
"503.0000","41.9165","0.0789"
"504.0000","42.0003","0.0789"
"505.0000","42.0835","0.0790"
"506.0000","42.1669","0.0790"
"507.0000","42.2505","0.0790"
"508.0000","42.3333","0.0791"
"509.0000","42.4168","0.0792"
"510.0000","42.5003","0.0792"
"511.0000","42.5833","0.0792"
"512.0000","42.6672","0.0792"
"513.0000","42.7501","0.0793"
"514.0000","42.8333","0.0794"
"515.0000","42.9171","0.0794"
"516.0000","43.0000","0.0794"
"517.0000","43.0837","0.0795"
"518.0000","43.1669","0.0796"
"519.0000","43.2499","0.0796"
"520.0000","43.3337","0.0796"
"521.0000","43.4168","0.0797"
"522.0000","43.5003","0.0797"
"523.0000","43.5839","0.0797"
"524.0000","43.6667","0.0798"
"525.0000","43.7500","0.0798"
"526.0000","43.8336","0.0799"
"527.0000","43.9167","0.0799"
"528.0000","44.0004","0.0799"
"529.0000","44.0835","0.0800"
"530.0000","44.1667","0.0801"
"531.0000","44.2504","0.0800"
"532.0000","44.3332","0.0801"
"533.0000","44.4169","0.0801"
"534.0000","44.5004","0.0802"
"535.0000","44.5831","0.0802"
"536.0000","44.6669","0.0802"
"537.0000","44.7501","0.0803"
"538.0000","44.8336","0.0803"
"539.0000","44.9172","0.0804"
"540.0000","45.0000","0.0804"
"541.0000","45.0835","0.0804"
"542.0000","45.1668","0.0805"
"543.0000","45.2499","0.0805"
"544.0000","45.3339","0.0806"
"545.0000","45.4168","0.0806"
"546.0000","45.5000","0.0806"
"547.0000","45.5837","0.0807"
"548.0000","45.6667","0.0807"
"549.0000","45.7503","0.0808"
"550.0000","45.8336","0.0808"
"551.0000","45.9167","0.0809"
"552.0000","46.0004","0.0809"
"553.0000","46.0833","0.0810"
"554.0000","46.1668","0.0811"
"555.0000","46.2507","0.0811"
"556.0000","46.3333","0.0811"
"557.0000","46.4167","0.0812"
"558.0000","46.5004","0.0812"
"559.0000","46.5833","0.0813"
"560.0000","46.6672","0.0813"
"561.0000","46.7500","0.0813"
"562.0000","46.8332","0.0814"
"563.0000","46.9172","0.0815"
"564.0000","47.0000","0.0815"
"565.0000","47.0836","0.0816"
"566.0000","47.1671","0.0816"
"567.0000","47.2497","0.0816"
"568.0000","47.3336","0.0817"
"569.0000","47.4168","0.0817"
"570.0000","47.5003","0.0818"
"571.0000","47.5837","0.0818"
"572.0000","47.6667","0.0819"
"573.0000","47.7501","0.0819"
"574.0000","47.8336","0.0819"
"575.0000","47.9167","0.0819"
"576.0000","48.0004","0.0820"
"577.0000","48.0835","0.0820"
"578.0000","48.1667","0.0820"
"579.0000","48.2504","0.0821"
"580.0000","48.3333","0.0821"
"581.0000","48.4169","0.0822"
"582.0000","48.5003","0.0822"
"583.0000","48.5832","0.0823"
"584.0000","48.6671","0.0823"
"585.0000","48.7501","0.0823"
"586.0000","48.8336","0.0824"
"587.0000","48.9173","0.0824"
"588.0000","49.0001","0.0825"
"589.0000","49.0833","0.0825"
"590.0000","49.1671","0.0825"
"591.0000","49.2501","0.0826"
"592.0000","49.3339","0.0826"
"593.0000","49.4167","0.0826"
"594.0000","49.5000","0.0827"
"595.0000","49.5837","0.0827"
"596.0000","49.6665","0.0828"
"597.0000","49.7503","0.0828"
"598.0000","49.8337","0.0828"
"599.0000","49.9165","0.0829"
"600.0000","50.0003","0.0829"
"601.0000","50.0836","0.0829"
"602.0000","50.1669","0.0830"
"603.0000","50.2505","0.0830"
"604.0000","50.3333","0.0831"
"605.0000","50.4168","0.0831"
"606.0000","50.5001","0.0831"
"607.0000","50.5833","0.0832"
"608.0000","50.6672","0.0832"
"609.0000","50.7501","0.0833"
"610.0000","50.8332","0.0833"
"611.0000","50.9171","0.0833"
"612.0000","51.0000","0.0833"
"613.0000","51.0836","0.0834"
"614.0000","51.1669","0.0834"
"615.0000","51.2500","0.0834"
"616.0000","51.3337","0.0835"
"617.0000","51.4168","0.0836"
"618.0000","51.5001","0.0836"
"619.0000","51.5839","0.0836"
"620.0000","51.6665","0.0836"
"621.0000","51.7500","0.0837"
"622.0000","51.8336","0.0837"
"623.0000","51.9167","0.0838"
"624.0000","52.0004","0.0838"
"625.0000","52.0835","0.0839"
"626.0000","52.1667","0.0839"
"627.0000","52.2505","0.0839"
"628.0000","52.3333","0.0839"
"629.0000","52.4167","0.0840"
"630.0000","52.5004","0.0840"
"631.0000","52.5832","0.0841"
"632.0000","52.6669","0.0841"
"633.0000","52.7501","0.0841"
"634.0000","52.8336","0.0841"
"635.0000","52.9172","0.0842"
"636.0000","52.9999","0.0842"
"637.0000","53.0835","0.0843"
"638.0000","53.1669","0.0843"
"639.0000","53.2499","0.0843"
"640.0000","53.3339","0.0844"
"641.0000","53.4168","0.0844"
"642.0000","53.5000","0.0844"
"643.0000","53.5837","0.0845"
"644.0000","53.6665","0.0845"
"645.0000","53.7503","0.0845"
"646.0000","53.8336","0.0846"
"647.0000","53.9165","0.0846"
"648.0000","54.0004","0.0846"
"649.0000","54.0835","0.0847"
"650.0000","54.1668","0.0847"
"651.0000","54.2505","0.0847"
"652.0000","54.3333","0.0848"
"653.0000","54.4168","0.0848"
"654.0000","54.5003","0.0849"
"655.0000","54.5835","0.0849"
"656.0000","54.6671","0.0849"
"657.0000","54.7501","0.0850"
"658.0000","54.8333","0.0850"
"659.0000","54.9172","0.0850"
"660.0000","55.0000","0.0851"
"661.0000","55.0836","0.0851"
"662.0000","55.1671","0.0852"
"663.0000","55.2499","0.0852"
"664.0000","55.3336","0.0853"
"665.0000","55.4168","0.0853"
"666.0000","55.5003","0.0853"
"667.0000","55.5839","0.0853"
"668.0000","55.6667","0.0854"
"669.0000","55.7501","0.0854"
"670.0000","55.8336","0.0854"
"671.0000","55.9167","0.0855"
"672.0000","56.0005","0.0855"
"673.0000","56.0835","0.0856"
"674.0000","56.1667","0.0856"
"675.0000","56.2504","0.0856"
"676.0000","56.3333","0.0857"
"677.0000","56.4169","0.0857"
"678.0000","56.5004","0.0858"
"679.0000","56.5833","0.0858"
"680.0000","56.6671","0.0858"
"681.0000","56.7501","0.0859"
"682.0000","56.8335","0.0859"
"683.0000","56.9172","0.0860"
"684.0000","56.9999","0.0860"
"685.0000","57.0835","0.0860"
"686.0000","57.1671","0.0860"
"687.0000","57.2500","0.0861"
"688.0000","57.3337","0.0861"
"689.0000","57.4167","0.0861"
"690.0000","57.5000","0.0862"
"691.0000","57.5837","0.0862"
"692.0000","57.6667","0.0862"
"693.0000","57.7501","0.0863"
"694.0000","57.8337","0.0863"
"695.0000","57.9165","0.0863"
"696.0000","58.0003","0.0863"
"697.0000","58.0835","0.0864"
"698.0000","58.1669","0.0864"
"699.0000","58.2505","0.0864"
"700.0000","58.3333","0.0865"
"701.0000","58.4167","0.0865"
"702.0000","58.5003","0.0865"
"703.0000","58.5833","0.0865"
"704.0000","58.6672","0.0866"
"705.0000","58.7501","0.0867"
"706.0000","58.8333","0.0867"
"707.0000","58.9171","0.0867"
"708.0000","59.0000","0.0867"
"709.0000","59.0836","0.0868"
"710.0000","59.1668","0.0868"
"711.0000","59.2500","0.0868"
"712.0000","59.3337","0.0869"
"713.0000","59.4168","0.0869"
"714.0000","59.5003","0.0869"
"715.0000","59.5839","0.0870"
"716.0000","59.6667","0.0870"
"717.0000","59.7501","0.0870"
"718.0000","59.8337","0.0870"
"719.0000","59.9168","0.0871"
"720.0000","60.0005","0.0871"
"721.0000","60.0833","0.0872"
"722.0000","60.1667","0.0872"
"723.0000","60.2504","0.0872"
"724.0000","60.3333","0.0872"
"725.0000","60.4169","0.0873"
"726.0000","60.5004","0.0873"
"727.0000","60.5831","0.0873"
"728.0000","60.6669","0.0874"
"729.0000","60.7501","0.0874"
"730.0000","60.8336","0.0874"
"731.0000","60.9171","0.0874"
"732.0000","60.9999","0.0875"
"733.0000","61.0836","0.0875"
"734.0000","61.1668","0.0876"
"735.0000","61.2499","0.0876"
"736.0000","61.3339","0.0876"
"737.0000","61.4168","0.0877"
"738.0000","61.5000","0.0877"
"739.0000","61.5837","0.0877"
"740.0000","61.6667","0.0878"
"741.0000","61.7503","0.0878"
"742.0000","61.8337","0.0878"
"743.0000","61.9165","0.0878"
"744.0000","62.0004","0.0878"
"745.0000","62.0833","0.0879"
"746.0000","62.1668","0.0880"
"747.0000","62.2507","0.0880"
"748.0000","62.3333","0.0880"
"749.0000","62.4168","0.0881"
"750.0000","62.5003","0.0881"
"751.0000","62.5833","0.0881"
"752.0000","62.6671","0.0881"
"753.0000","62.7501","0.0882"
"754.0000","62.8335","0.0882"
"755.0000","62.9171","0.0882"
"756.0000","63.0000","0.0883"
"757.0000","63.0836","0.0883"
"758.0000","63.1669","0.0884"
"759.0000","63.2499","0.0884"
"760.0000","63.3336","0.0885"
"761.0000","63.4168","0.0885"
"762.0000","63.5003","0.0885"
"763.0000","63.5839","0.0885"
"764.0000","63.6667","0.0885"
"765.0000","63.7501","0.0886"
"766.0000","63.8336","0.0886"
"767.0000","63.9167","0.0887"
"768.0000","64.0005","0.0887"
"769.0000","64.0835","0.0887"
"770.0000","64.1667","0.0888"
"771.0000","64.2504","0.0888"
"772.0000","64.3333","0.0889"
"773.0000","64.4171","0.0889"
"774.0000","64.5003","0.0889"
"775.0000","64.5833","0.0889"
"776.0000","64.6672","0.0890"
"777.0000","64.7500","0.0890"
"778.0000","64.8336","0.0891"
"779.0000","64.9172","0.0891"
"780.0000","64.9999","0.0891"
"781.0000","65.0833","0.0892"
"782.0000","65.1668","0.0892"
"783.0000","65.2500","0.0892"
"784.0000","65.3337","0.0892"
"785.0000","65.4168","0.0893"
"786.0000","65.5000","0.0893"
"787.0000","65.5837","0.0893"
"788.0000","65.6667","0.0894"
"789.0000","65.7503","0.0894"
"790.0000","65.8337","0.0895"
"791.0000","65.9165","0.0895"
"792.0000","66.0004","0.0895"
"793.0000","66.0835","0.0896"
"794.0000","66.1668","0.0896"
"795.0000","66.2505","0.0896"
"796.0000","66.3333","0.0896"
"797.0000","66.4168","0.0897"
"798.0000","66.5003","0.0897"
"799.0000","66.5833","0.0898"
"800.0000","66.6672","0.0898"
"801.0000","66.7501","0.0899"
"802.0000","66.8333","0.0898"
"803.0000","66.9171","0.0899"
"804.0000","67.0000","0.0899"
"805.0000","67.0836","0.0900"
"806.0000","67.1671","0.0900"
"807.0000","67.2500","0.0900"
"808.0000","67.3337","0.0901"
"809.0000","67.4168","0.0901"
"810.0000","67.5003","0.0901"
"811.0000","67.5839","0.0902"
"812.0000","67.6667","0.0902"
"813.0000","67.7501","0.0902"
"814.0000","67.8336","0.0903"
"815.0000","67.9168","0.0903"
"816.0000","68.0005","0.0903"
"817.0000","68.0835","0.0904"
"818.0000","68.1668","0.0904"
"819.0000","68.2504","0.0904"
"820.0000","68.3332","0.0904"
"821.0000","68.4169","0.0905"
"822.0000","68.5004","0.0905"
"823.0000","68.5832","0.0906"
"824.0000","68.6668","0.0906"
"825.0000","68.7503","0.0906"
"826.0000","68.8335","0.0906"
"827.0000","68.9172","0.0907"
"828.0000","68.9999","0.0907"
"829.0000","69.0835","0.0907"
"830.0000","69.1669","0.0908"
"831.0000","69.2500","0.0908"
"832.0000","69.3339","0.0908"
"833.0000","69.4168","0.0909"
"834.0000","69.4998","0.0909"
"835.0000","69.5837","0.0909"
"836.0000","69.6667","0.0910"
"837.0000","69.7503","0.0910"
"838.0000","69.8335","0.0911"
"839.0000","69.9166","0.0911"
"840.0000","70.0003","0.0911"
"841.0000","70.0835","0.0911"
"842.0000","70.1668","0.0912"
"843.0000","70.2507","0.0912"
"844.0000","70.3333","0.0912"
"845.0000","70.4168","0.0913"
"846.0000","70.5004","0.0913"
"847.0000","70.5835","0.0913"
"848.0000","70.6671","0.0913"
"849.0000","70.7501","0.0914"
"850.0000","70.8333","0.0914"
"851.0000","70.9172","0.0914"
"852.0000","70.9999","0.0915"
"853.0000","71.0836","0.0915"
"854.0000","71.1671","0.0915"
"855.0000","71.2498","0.0915"
"856.0000","71.3336","0.0916"
"857.0000","71.4168","0.0916"
"858.0000","71.5004","0.0916"
"859.0000","71.5839","0.0917"
"860.0000","71.6666","0.0917"
"861.0000","71.7501","0.0918"
"862.0000","71.8336","0.0917"
"863.0000","71.9167","0.0917"
"864.0000","72.0005","0.0918"
"865.0000","72.0835","0.0918"
"866.0000","72.1666","0.0918"
"867.0000","72.2504","0.0919"
"868.0000","72.3333","0.0918"
"869.0000","72.4171","0.0918"
"870.0000","72.5003","0.0919"
"871.0000","72.5833","0.0919"
"872.0000","72.6671","0.0920"
"873.0000","72.7500","0.0920"
"874.0000","72.8336","0.0920"
"875.0000","72.9172","0.0921"
"876.0000","73.0000","0.0921"
"877.0000","73.0833","0.0921"
"878.0000","73.1669","0.0921"
"879.0000","73.2500","0.0922"
"880.0000","73.3337","0.0922"
"881.0000","73.4166","0.0922"
"882.0000","73.5000","0.0922"
"883.0000","73.5837","0.0923"
"884.0000","73.6665","0.0923"
"885.0000","73.7503","0.0923"
"886.0000","73.8337","0.0924"
"887.0000","73.9165","0.0924"
"888.0000","74.0003","0.0924"
"889.0000","74.0836","0.0924"
"890.0000","74.1669","0.0925"
"891.0000","74.2505","0.0924"
"892.0000","74.3333","0.0925"
"893.0000","74.4166","0.0926"
"894.0000","74.5003","0.0925"
"895.0000","74.5833","0.0926"
"896.0000","74.6672","0.0926"
"897.0000","74.7501","0.0926"
"898.0000","74.8333","0.0927"
"899.0000","74.9171","0.0927"
"900.0000","75.0001","0.0927"
"901.0000","75.0837","0.0927"
"902.0000","75.1668","0.0928"
"903.0000","75.2500","0.0928"
"904.0000","75.3337","0.0928"
"905.0000","75.4168","0.0928"
"906.0000","75.5001","0.0929"
"907.0000","75.5839","0.0928"
"908.0000","75.6666","0.0929"
"909.0000","75.7500","0.0929"
"910.0000","75.8337","0.0929"
"911.0000","75.9168","0.0929"
"912.0000","76.0005","0.0929"
"913.0000","76.0835","0.0930"
"914.0000","76.1668","0.0930"
"915.0000","76.2504","0.0930"
"916.0000","76.3332","0.0930"
"917.0000","76.4169","0.0931"
"918.0000","76.5004","0.0930"
"919.0000","76.5832","0.0931"
"920.0000","76.6669","0.0931"
"921.0000","76.7501","0.0931"
"922.0000","76.8335","0.0931"
"923.0000","76.9172","0.0932"
"924.0000","76.9998","0.0932"
"925.0000","77.0835","0.0932"
"926.0000","77.1669","0.0932"
"927.0000","77.2499","0.0933"
"928.0000","77.3339","0.0933"
"929.0000","77.4168","0.0933"
"930.0000","77.5000","0.0933"
"931.0000","77.5837","0.0933"
"932.0000","77.6667","0.0934"
"933.0000","77.7503","0.0934"
"934.0000","77.8336","0.0934"
"935.0000","77.9165","0.0935"
"936.0000","78.0004","0.0935"
"937.0000","78.0835","0.0935"
"938.0000","78.1668","0.0935"
"939.0000","78.2505","0.0936"
"940.0000","78.3333","0.0936"
"941.0000","78.4168","0.0936"
"942.0000","78.5003","0.0936"
"943.0000","78.5833","0.0936"
"944.0000","78.6672","0.0937"
"945.0000","78.7501","0.0937"
"946.0000","78.8333","0.0937"
"947.0000","78.9171","0.0938"
"948.0000","78.9999","0.0938"
"949.0000","79.0836","0.0938"
"950.0000","79.1671","0.0939"
"951.0000","79.2499","0.0939"
"952.0000","79.3336","0.0939"
"953.0000","79.4168","0.0940"
"954.0000","79.5003","0.0940"
"955.0000","79.5839","0.0940"
"956.0000","79.6666","0.0940"
"957.0000","79.7501","0.0941"
"958.0000","79.8336","0.0941"
"959.0000","79.9167","0.0942"
"960.0000","80.0007","0.0942"
"961.0000","80.0835","0.0942"
"962.0000","80.1667","0.0943"
"963.0000","80.2504","0.0943"
"964.0000","80.3333","0.0944"
"965.0000","80.4169","0.0944"
"966.0000","80.5003","0.0944"
"967.0000","80.5832","0.0945"
"968.0000","80.6671","0.0945"
"969.0000","80.7500","0.0945"
"970.0000","80.8335","0.0946"
"971.0000","80.9172","0.0946"
"972.0000","81.0000","0.0946"
"973.0000","81.0835","0.0947"
"974.0000","81.1669","0.0947"
"975.0000","81.2501","0.0948"
"976.0000","81.3339","0.0948"
"977.0000","81.4168","0.0948"
"978.0000","81.5000","0.0949"
"979.0000","81.5837","0.0949"
"980.0000","81.6665","0.0949"
"981.0000","81.7503","0.0949"
"982.0000","81.8337","0.0950"
"983.0000","81.9165","0.0950"
"984.0000","82.0003","0.0951"
"985.0000","82.0835","0.0951"
"986.0000","82.1669","0.0951"
"987.0000","82.2505","0.0951"
"988.0000","82.3332","0.0951"
"989.0000","82.4168","0.0952"
"990.0000","82.5003","0.0952"
"991.0000","82.5833","0.0952"
"992.0000","82.6672","0.0952"
"993.0000","82.7501","0.0953"
"994.0000","82.8332","0.0953"
"995.0000","82.9171","0.0953"
"996.0000","83.0000","0.0953"
"997.0000","83.0836","0.0954"
"998.0000","83.1669","0.0954"
"999.0000","83.2499","0.0954"
"1000","83.3337","0.0955"
"1001","83.4168","0.0955"
"1002","83.5003","0.0955"
"1003","83.5839","0.0956"
"1004","83.6666","0.0956"
"1005","83.7500","0.0957"
"1006","83.8337","0.0957"
"1007","83.9168","0.0957"
"1008","84.0005","0.0957"
"1009","84.0835","0.0957"
"1010","84.1665","0.0958"
"1011","84.2504","0.0958"
"1012","84.3333","0.0958"
"1013","84.4169","0.0958"
"1014","84.5004","0.0959"
"1015","84.5832","0.0959"
"1016","84.6669","0.0959"
"1017","84.7501","0.0960"
"1018","84.8336","0.0960"
"1019","84.9172","0.0960"
"1020","85.0000","0.0961"
"1021","85.0835","0.0961"
"1022","85.1669","0.0961"
"1023","85.2499","0.0961"
"1024","85.3339","0.0962"
"1025","85.4169","0.0962"
"1026","85.5000","0.0962"
"1027","85.5837","0.0963"
"1028","85.6667","0.0963"
"1029","85.7503","0.0963"
"1030","85.8336","0.0964"
"1031","85.9167","0.0964"
"1032","86.0004","0.0964"
"1033","86.0835","0.0965"
"1034","86.1668","0.0965"
"1035","86.2505","0.0965"
"1036","86.3333","0.0966"
"1037","86.4168","0.0966"
"1038","86.5003","0.0966"
"1039","86.5835","0.0966"
"1040","86.6672","0.0966"
"1041","86.7501","0.0967"
"1042","86.8333","0.0967"
"1043","86.9171","0.0967"
"1044","87.0000","0.0968"
"1045","87.0836","0.0967"
"1046","87.1671","0.0968"
"1047","87.2499","0.0968"
"1048","87.3337","0.0969"
"1049","87.4168","0.0969"
"1050","87.5003","0.0969"
"1051","87.5839","0.0969"
"1052","87.6667","0.0970"
"1053","87.7501","0.0970"
"1054","87.8336","0.0970"
"1055","87.9166","0.0971"
"1056","88.0004","0.0971"
"1057","88.0835","0.0971"
"1058","88.1667","0.0971"
"1059","88.2504","0.0972"
"1060","88.3333","0.0972"
"1061","88.4169","0.0973"
"1062","88.5003","0.0973"
"1063","88.5833","0.0973"
"1064","88.6671","0.0974"
"1065","88.7501","0.0974"
"1066","88.8336","0.0974"
"1067","88.9172","0.0974"
"1068","89.0000","0.0974"
"1069","89.0835","0.0975"
"1070","89.1671","0.0975"
"1071","89.2501","0.0975"
"1072","89.3339","0.0975"
"1073","89.4168","0.0976"
"1074","89.5001","0.0977"
"1075","89.5837","0.0977"
"1076","89.6665","0.0977"
"1077","89.7503","0.0977"
"1078","89.8337","0.0978"
"1079","89.9165","0.0978"
"1080","90.0003","0.0978"
"1081","90.0833","0.0978"
"1082","90.1669","0.0979"
"1083","90.2505","0.0979"
"1084","90.3332","0.0979"
"1085","90.4168","0.0979"
"1086","90.5001","0.0980"
"1087","90.5833","0.0980"
"1088","90.6672","0.0980"
"1089","90.7503","0.0981"
"1090","90.8333","0.0981"
"1091","90.9171","0.0981"
"1092","91.0000","0.0982"
"1093","91.0836","0.0982"
"1094","91.1669","0.0982"
"1095","91.2500","0.0983"
"1096","91.3337","0.0983"
"1097","91.4168","0.0984"
"1098","91.5001","0.0984"
"1099","91.5839","0.0984"
"1100","91.6667","0.0984"
"1101","91.7500","0.0985"
"1102","91.8336","0.0985"
"1103","91.9168","0.0985"
"1104","92.0005","0.0985"
"1105","92.0835","0.0986"
"1106","92.1667","0.0986"
"1107","92.2503","0.0986"
"1108","92.3332","0.0986"
"1109","92.4169","0.0987"
"1110","92.5004","0.0987"
"1111","92.5831","0.0988"
"1112","92.6669","0.0988"
"1113","92.7500","0.0988"
"1114","92.8336","0.0989"
"1115","92.9172","0.0989"
"1116","93.0000","0.0989"
"1117","93.0835","0.0990"
"1118","93.1669","0.0990"
"1119","93.2500","0.0990"
"1120","93.3339","0.0990"
"1121","93.4169","0.0991"
"1122","93.5000","0.0991"
"1123","93.5837","0.0991"
"1124","93.6666","0.0992"
"1125","93.7503","0.0992"
"1126","93.8335","0.0993"
"1127","93.9165","0.0993"
"1128","94.0003","0.0993"
"1129","94.0833","0.0994"
"1130","94.1668","0.0994"
"1131","94.2505","0.0994"
"1132","94.3333","0.0995"
"1133","94.4167","0.0995"
"1134","94.5004","0.0995"
"1135","94.5833","0.0996"
"1136","94.6672","0.0996"
"1137","94.7500","0.0996"
"1138","94.8333","0.0997"
"1139","94.9172","0.0997"
"1140","94.9998","0.0997"
"1141","95.0836","0.0998"
"1142","95.1671","0.0998"
"1143","95.2499","0.0998"
"1144","95.3336","0.0999"
"1145","95.4168","0.0999"
"1146","95.5003","0.0999"
"1147","95.5839","0.1000"
"1148","95.6667","0.1000"
"1149","95.7501","0.1001"
"1150","95.8336","0.1001"
"1151","95.9166","0.1001"
"1152","96.0005","0.1002"
"1153","96.0835","0.1002"
"1154","96.1667","0.1002"
"1155","96.2504","0.1003"
"1156","96.3333","0.1003"
"1157","96.4169","0.1003"
"1158","96.5003","0.1004"
"1159","96.5833","0.1004"
"1160","96.6671","0.1005"
"1161","96.7500","0.1005"
"1162","96.8335","0.1006"
"1163","96.9173","0.1006"
"1164","97.0000","0.1006"
"1165","97.0833","0.1007"
"1166","97.1669","0.1007"
"1167","97.2500","0.1007"
"1168","97.3339","0.1008"
"1169","97.4167","0.1008"
"1170","97.5000","0.1008"
"1171","97.5837","0.1009"
"1172","97.6665","0.1009"
"1173","97.7503","0.1010"
"1174","97.8337","0.1010"
"1175","97.9165","0.1010"
"1176","98.0003","0.1011"
"1177","98.0835","0.1011"
"1178","98.1671","0.1011"
"1179","98.2505","0.1012"
"1180","98.3332","0.1012"
"1181","98.4168","0.1012"
"1182","98.5003","0.1013"
"1183","98.5833","0.1013"
"1184","98.6672","0.1013"
"1185","98.7501","0.1013"
"1186","98.8333","0.1014"
"1187","98.9171","0.1014"
"1188","99.0000","0.1014"
"1189","99.0836","0.1015"
"1190","99.1669","0.1015"
"1191","99.2499","0.1015"
"1192","99.3337","0.1015"
"1193","99.4168","0.1016"
"1194","99.5001","0.1016"
"1195","99.5839","0.1016"
"1196","99.6667","0.1017"
"1197","99.7500","0.1017"
"1198","99.8336","0.1017"
"1199","99.9168","0.1018"
"1200","100.0004","0.1018"
"1201","100.0835","0.1019"
"1202","100.1667","0.1019"
"1203","100.2504","0.1019"
"1204","100.3333","0.1020"
"1205","100.4169","0.1020"
"1206","100.5004","0.1020"
"1207","100.5832","0.1020"
"1208","100.6669","0.1021"
"1209","100.7501","0.1021"
"1210","100.8336","0.1021"
"1211","100.9172","0.1022"
"1212","100.9999","0.1022"
"1213","101.0835","0.1022"
"1214","101.1669","0.1023"
"1215","101.2500","0.1023"
"1216","101.3337","0.1024"
"1217","101.4169","0.1024"
"1218","101.5000","0.1024"
"1219","101.5836","0.1025"
"1220","101.6666","0.1025"
"1221","101.7503","0.1025"
"1222","101.8336","0.1025"
"1223","101.9165","0.1026"
"1224","102.0004","0.1026"
"1225","102.0835","0.1026"
"1226","102.1668","0.1027"
"1227","102.2505","0.1027"
"1228","102.3333","0.1027"
"1229","102.4168","0.1027"
"1230","102.5003","0.1028"
"1231","102.5833","0.1028"
"1232","102.6672","0.1028"
"1233","102.7500","0.1028"
"1234","102.8333","0.1028"
"1235","102.9171","0.1028"
"1236","103.0000","0.1029"
"1237","103.0836","0.1029"
"1238","103.1671","0.1030"
"1239","103.2499","0.1030"
"1240","103.3335","0.1030"
"1241","103.4168","0.1031"
"1242","103.5003","0.1031"
"1243","103.5838","0.1032"
"1244","103.6665","0.1032"
"1245","103.7501","0.1032"
"1246","103.8336","0.1033"
"1247","103.9166","0.1033"
"1248","104.0005","0.1033"
"1249","104.0836","0.1034"
"1250","104.1665","0.1034"
"1251","104.2504","0.1034"
"1252","104.3333","0.1035"
"1253","104.4169","0.1035"
"1254","104.5003","0.1035"
"1255","104.5832","0.1035"
"1256","104.6671","0.1036"
"1257","104.7501","0.1036"
"1258","104.8336","0.1036"
"1259","104.9172","0.1037"
"1260","105.0000","0.1037"
"1261","105.0835","0.1037"
"1262","105.1671","0.1037"
"1263","105.2501","0.1037"
"1264","105.3337","0.1038"
"1265","105.4167","0.1038"
"1266","105.5000","0.1038"
"1267","105.5837","0.1038"
"1268","105.6666","0.1039"
"1269","105.7503","0.1039"
"1270","105.8336","0.1039"
"1271","105.9165","0.1039"
"1272","106.0003","0.1040"
"1273","106.0835","0.1040"
"1274","106.1669","0.1040"
"1275","106.2505","0.1040"
"1276","106.3332","0.1041"
"1277","106.4168","0.1041"
"1278","106.5003","0.1041"
"1279","106.5833","0.1042"
"1280","106.6672","0.1042"
"1281","106.7501","0.1042"
"1282","106.8333","0.1043"
"1283","106.9171","0.1043"
"1284","107.0000","0.1043"
"1285","107.0837","0.1044"
"1286","107.1668","0.1044"
"1287","107.2500","0.1044"
"1288","107.3337","0.1044"
"1289","107.4168","0.1045"
"1290","107.5001","0.1045"
"1291","107.5838","0.1045"
"1292","107.6667","0.1046"
"1293","107.7501","0.1046"
"1294","107.8336","0.1047"
"1295","107.9168","0.1047"
"1296","108.0004","0.1047"
"1297","108.0835","0.1048"
"1298","108.1666","0.1048"
"1299","108.2504","0.1049"
"1300","108.3332","0.1049"
"1301","108.4169","0.1050"
"1302","108.5004","0.1050"
"1303","108.5832","0.1051"
"1304","108.6669","0.1051"
"1305","108.7501","0.1052"
"1306","108.8336","0.1052"
"1307","108.9172","0.1053"
"1308","109.0000","0.1053"
"1309","109.0835","0.1053"
"1310","109.1669","0.1053"
"1311","109.2499","0.1053"
"1312","109.3338","0.1054"
"1313","109.4169","0.1055"
"1314","109.5000","0.1055"
"1315","109.5837","0.1055"
"1316","109.6668","0.1056"
"1317","109.7504","0.1056"
"1318","109.8335","0.1057"
"1319","109.9165","0.1057"
"1320","110.0004","0.1057"
"1321","110.0833","0.1058"
"1322","110.1668","0.1058"
"1323","110.2505","0.1058"
"1324","110.3332","0.1059"
"1325","110.4168","0.1059"
"1326","110.5004","0.1060"
"1327","110.5835","0.1060"
"1328","110.6672","0.1060"
"1329","110.7501","0.1061"
"1330","110.8333","0.1061"
"1331","110.9172","0.1061"
"1332","111.0000","0.1061"
"1333","111.0836","0.1062"
"1334","111.1671","0.1062"
"1335","111.2497","0.1062"
"1336","111.3335","0.1063"
"1337","111.4168","0.1063"
"1338","111.5003","0.1063"
"1339","111.5839","0.1063"
"1340","111.6665","0.1064"
"1341","111.7501","0.1064"
"1342","111.8336","0.1064"
"1343","111.9167","0.1065"
"1344","112.0005","0.1065"
"1345","112.0835","0.1066"
"1346","112.1666","0.1066"
"1347","112.2504","0.1066"
"1348","112.3333","0.1066"
"1349","112.4171","0.1066"
"1350","112.5003","0.1067"
"1351","112.5833","0.1067"
"1352","112.6671","0.1068"
"1353","112.7500","0.1068"
"1354","112.8335","0.1068"
"1355","112.9173","0.1068"
"1356","113.0000","0.1069"
"1357","113.0833","0.1069"
"1358","113.1669","0.1069"
"1359","113.2500","0.1070"
"1360","113.3337","0.1070"
"1361","113.4168","0.1070"
"1362","113.5000","0.1070"
"1363","113.5837","0.1071"
"1364","113.6665","0.1071"
"1365","113.7503","0.1071"
"1366","113.8337","0.1071"
"1367","113.9166","0.1071"
"1368","114.0003","0.1071"
"1369","114.0835","0.1072"
"1370","114.1669","0.1072"
"1371","114.2505","0.1073"
"1372","114.3332","0.1073"
"1373","114.4168","0.1073"
"1374","114.5003","0.1073"
"1375","114.5832","0.1073"
"1376","114.6672","0.1074"
"1377","114.7501","0.1074"
"1378","114.8333","0.1074"
"1379","114.9171","0.1074"
"1380","114.9999","0.1074"
"1381","115.0836","0.1075"
"1382","115.1669","0.1075"
"1383","115.2498","0.1075"
"1384","115.3337","0.1076"
"1385","115.4168","0.1076"
"1386","115.5001","0.1076"
"1387","115.5839","0.1076"
"1388","115.6668","0.1077"
"1389","115.7500","0.1076"
"1390","115.8336","0.1077"
"1391","115.9168","0.1077"
"1392","116.0005","0.1078"
"1393","116.0833","0.1078"
"1393.99","116.1656","0.1079"