File: Reports and Data/Tensile testing/TENSILE TEST.is_qtest_Exports/TENSILE TEST_2.csv
Time,Displacement,Force
(s),(mm),(kN)
"0.0000","116.1694","0.1058"
"0.3000","116.2667","0.1062"
"0.6000","116.3693","0.1066"
"0.9000","116.4696","0.1071"
"1.2000","116.5701","0.1075"
"1.5000","116.6704","0.1079"
"1.8000","116.7699","0.1082"
"2.1000","116.8696","0.1087"
"2.4000","116.9700","0.1090"
"2.7000","117.0705","0.1093"
"3.0000","117.1700","0.1096"
"3.3000","117.2697","0.1100"
"3.6000","117.3701","0.1103"
"3.9000","117.4704","0.1106"
"4.2000","117.5700","0.1109"
"4.5000","117.6697","0.1112"
"4.8000","117.7700","0.1115"
"5.1000","117.8704","0.1118"
"5.4000","117.9700","0.1120"
"5.7000","118.0696","0.1123"
"6.0000","118.1701","0.1126"
"6.3000","118.2703","0.1128"
"6.6000","118.3700","0.1130"
"6.9000","118.4697","0.1132"
"7.2000","118.5700","0.1135"
"7.5000","118.6704","0.1137"
"7.8000","118.7700","0.1139"
"8.1000","118.8696","0.1141"
"8.4000","118.9701","0.1143"
"8.7000","119.0704","0.1145"
"9.0000","119.1700","0.1146"
"9.3000","119.2697","0.1148"
"9.6000","119.3700","0.1150"
"9.9000","119.4704","0.1151"
"10.2000","119.5700","0.1153"
"10.5000","119.6697","0.1154"
"10.8000","119.7702","0.1156"
"11.1000","119.8703","0.1157"
"11.4000","119.9698","0.1158"
"11.7000","120.0697","0.1160"
"12.0000","120.1700","0.1161"
"12.3000","120.2705","0.1162"
"12.6000","120.3700","0.1163"
"12.9000","120.4697","0.1164"
"13.2000","120.5701","0.1165"
"13.5000","120.6704","0.1166"
"13.8000","120.7700","0.1167"
"14.1000","120.8697","0.1167"
"14.4000","120.9700","0.1168"
"14.7000","121.0704","0.1168"
"15.0000","121.1700","0.1169"
"15.3000","121.2696","0.1169"
"15.6000","121.3701","0.1169"
"15.9000","121.4704","0.1169"
"16.2000","121.5700","0.1168"
"16.5000","121.6697","0.1168"
"16.8000","121.7700","0.1167"
"17.1000","121.8704","0.1166"
"17.4000","121.9700","0.1165"
"17.7000","122.0696","0.1163"
"18.0000","122.1703","0.1161"
"18.3000","122.2705","0.1158"
"18.6000","122.3700","0.1156"
"18.9000","122.4697","0.1153"
"19.2000","122.5700","0.1152"
"19.5000","122.6704","0.1151"
"19.8000","122.7700","0.1151"
"20.1000","122.8697","0.1150"
"20.4000","122.9701","0.1150"
"20.7000","123.0703","0.1149"
"21.0000","123.1699","0.1149"
"21.3000","123.2697","0.1148"
"21.6000","123.3700","0.1148"
"21.9000","123.4705","0.1148"
"22.2000","123.5700","0.1148"
"22.5000","123.6697","0.1148"
"22.8000","123.7701","0.1149"
"23.1000","123.8704","0.1149"
"23.4000","123.9700","0.1148"
"23.7000","124.0697","0.1148"
"24.0000","124.1700","0.1148"
"24.3000","124.2704","0.1147"
"24.6000","124.3700","0.1146"
"24.9000","124.4697","0.1146"
"25.2000","124.5701","0.1145"
"25.5000","124.6702","0.1145"
"25.8000","124.7699","0.1144"
"26.1000","124.8697","0.1144"
"26.4000","124.9700","0.1143"
"26.7000","125.0704","0.1143"
"27.0000","125.1700","0.1143"
"27.3000","125.2697","0.1143"
"27.6000","125.3701","0.1143"
"27.9000","125.4705","0.1143"
"28.2000","125.5700","0.1143"
"28.5000","125.6697","0.1143"
"28.8000","125.7700","0.1143"
"29.1000","125.8704","0.1144"
"29.4000","125.9698","0.1145"
"29.7000","126.0697","0.1145"
"30.0000","126.1702","0.1145"
"30.3000","126.2704","0.1145"
"30.6000","126.3698","0.1146"
"30.9000","126.4696","0.1147"
"31.2000","126.5700","0.1147"
"31.5000","126.6705","0.1148"
"31.8000","126.7700","0.1149"
"32.1000","126.8696","0.1149"
"32.4000","126.9701","0.1150"
"32.7000","127.0704","0.1151"
"33.0000","127.1700","0.1151"
"33.3000","127.2698","0.1152"
"33.6000","127.3700","0.1152"
"33.9000","127.4704","0.1153"
"34.2000","127.5700","0.1154"
"34.5000","127.6697","0.1154"
"34.8000","127.7701","0.1155"
"35.1000","127.8702","0.1156"
"35.4000","127.9698","0.1157"
"35.7000","128.0699","0.1157"
"36.0000","128.1700","0.1158"
"36.3000","128.2705","0.1159"
"36.6000","128.3698","0.1159"
"36.9000","128.4696","0.1160"
"37.2000","128.5702","0.1160"
"37.5000","128.6704","0.1161"
"37.8000","128.7700","0.1162"
"38.1000","128.8698","0.1162"
"38.4000","128.9700","0.1161"
"38.7000","129.0704","0.1161"
"39.0000","129.1698","0.1161"
"39.3000","129.2697","0.1162"
"39.6000","129.3701","0.1163"
"39.9000","129.4702","0.1163"
"40.2000","129.5698","0.1163"
"40.5000","129.6696","0.1164"
"40.8000","129.7700","0.1165"
"41.1000","129.8705","0.1166"
"41.4000","129.9700","0.1166"
"41.7000","130.0696","0.1166"
"42.0000","130.1701","0.1167"
"42.3000","130.2704","0.1168"
"42.6000","130.3700","0.1169"
"42.9000","130.4697","0.1169"
"43.2000","130.5700","0.1170"
"43.5000","130.6704","0.1170"
"43.8000","130.7700","0.1171"
"44.1000","130.8696","0.1172"
"44.4000","130.9701","0.1173"
"44.7000","131.0704","0.1174"
"45.0000","131.1700","0.1174"
"45.3000","131.2697","0.1176"
"45.6000","131.3700","0.1176"
"45.9000","131.4704","0.1177"
"46.2000","131.5700","0.1178"
"46.5000","131.6696","0.1178"
"46.8000","131.7701","0.1180"
"47.1000","131.8705","0.1180"
"47.4000","131.9700","0.1181"
"47.7000","132.0696","0.1181"
"48.0000","132.1700","0.1182"
"48.3000","132.2704","0.1182"
"48.6000","132.3700","0.1183"
"48.9000","132.4697","0.1183"
"49.2000","132.5702","0.1184"
"49.5000","132.6702","0.1185"
"49.8000","132.7698","0.1185"
"50.1000","132.8697","0.1186"
"50.4000","132.9700","0.1187"
"50.7000","133.0704","0.1188"
"51.0000","133.1700","0.1188"
"51.3000","133.2696","0.1189"
"51.6000","133.3701","0.1190"
"51.9000","133.4704","0.1190"
"52.2000","133.5698","0.1191"
"52.5000","133.6698","0.1192"
"52.8000","133.7700","0.1193"
"53.1000","133.8704","0.1194"
"53.4000","133.9700","0.1194"
"53.7000","134.0696","0.1195"
"54.0000","134.1701","0.1195"
"54.3000","134.2704","0.1195"
"54.6000","134.3698","0.1196"
"54.9000","134.4696","0.1197"
"55.2000","134.5700","0.1197"
"55.5000","134.6704","0.1198"
"55.8000","134.7700","0.1198"
"56.1000","134.8697","0.1199"
"56.4000","134.9702","0.1199"
"56.7000","135.0704","0.1200"
"57.0000","135.1700","0.1200"
"57.3000","135.2698","0.1201"
"57.6000","135.3698","0.1201"
"57.9000","135.4705","0.1202"
"58.2000","135.5700","0.1202"
"58.5000","135.6696","0.1203"
"58.8000","135.7701","0.1204"
"59.1000","135.8704","0.1204"
"59.4000","135.9698","0.1204"
"59.7000","136.0697","0.1205"
"60.0000","136.1700","0.1205"
"60.3000","136.2704","0.1206"
"60.6000","136.3700","0.1206"
"60.9000","136.4697","0.1206"
"61.2000","136.5703","0.1207"
"61.5000","136.6704","0.1207"
"61.8000","136.7701","0.1208"
"62.1000","136.8698","0.1208"
"62.4000","136.9700","0.1209"
"62.7000","137.0705","0.1210"
"63.0000","137.1700","0.1209"
"63.3000","137.2696","0.1211"
"63.6000","137.3701","0.1211"
"63.9000","137.4702","0.1212"
"64.2000","137.5700","0.1213"
"64.5000","137.6697","0.1213"
"64.8000","137.7697","0.1213"
"65.1000","137.8705","0.1214"
"65.4000","137.9698","0.1214"
"65.7000","138.0697","0.1214"
"66.0000","138.1701","0.1215"
"66.3000","138.2704","0.1216"
"66.6000","138.3700","0.1216"
"66.9000","138.4698","0.1216"
"67.2000","138.5700","0.1216"
"67.5000","138.6704","0.1217"
"67.8000","138.7698","0.1217"
"68.1000","138.8696","0.1217"
"68.4000","138.9701","0.1218"
"68.7000","139.0702","0.1218"
"69.0000","139.1700","0.1218"
"69.3000","139.2697","0.1218"
"69.6000","139.3701","0.1219"
"69.9000","139.4705","0.1219"
"70.2000","139.5700","0.1219"
"70.5000","139.6697","0.1220"
"70.8000","139.7702","0.1220"
"71.1000","139.8704","0.1220"
"71.4000","139.9700","0.1220"
"71.7000","140.0697","0.1221"
"72.0000","140.1700","0.1220"
"72.3000","140.2704","0.1220"
"72.6000","140.3700","0.1220"
"72.9000","140.4697","0.1220"
"73.2000","140.5701","0.1219"
"73.5000","140.6702","0.1219"
"73.8000","140.7700","0.1219"
"74.1000","140.8697","0.1219"
"74.4000","140.9701","0.1219"
"74.7000","141.0704","0.1219"
"75.0000","141.1700","0.1219"
"75.3000","141.2697","0.1219"
"75.6000","141.3701","0.1219"
"75.9000","141.4704","0.1219"
"76.2000","141.5701","0.1219"
"76.5000","141.6697","0.1219"
"76.8000","141.7700","0.1218"
"77.1000","141.8704","0.1217"
"77.4000","141.9698","0.1217"
"77.7000","142.0697","0.1216"
"78.0000","142.1701","0.1216"
"78.3000","142.2702","0.1216"
"78.6000","142.3700","0.1216"
"78.9000","142.4697","0.1216"
"79.2000","142.5700","0.1216"
"79.5000","142.6704","0.1216"
"79.8000","142.7700","0.1216"
"80.1000","142.8696","0.1216"
"80.4000","142.9701","0.1216"
"80.7000","143.0704","0.1216"
"81.0000","143.1700","0.1216"
"81.3000","143.2700","0.1215"
"81.6000","143.3700","0.1215"
"81.9000","143.4702","0.1214"
"82.2000","143.5700","0.1213"
"82.5000","143.6697","0.1213"
"82.8000","143.7701","0.1212"
"83.1000","143.8704","0.1211"
"83.4000","143.9698","0.1210"
"83.7000","144.0696","0.1209"
"84.0000","144.1700","0.1209"
"84.3000","144.2705","0.1208"
"84.6000","144.3700","0.1208"
"84.9000","144.4697","0.1207"
"85.2000","144.5701","0.1207"
"85.5000","144.6704","0.1206"
"85.8000","144.7700","0.1206"
"86.1000","144.8698","0.1206"
"86.4000","144.9700","0.1206"
"86.7000","145.0704","0.1207"
"87.0000","145.1700","0.1207"
"87.3000","145.2696","0.1207"
"87.6000","145.3702","0.1208"
"87.9000","145.4702","0.1208"
"88.2000","145.5700","0.1209"
"88.5000","145.6696","0.1209"
"88.8000","145.7700","0.1210"
"89.1000","145.8705","0.1210"
"89.4000","145.9700","0.1211"
"89.7000","146.0697","0.1211"
"90.0000","146.1701","0.1212"
"90.3000","146.2704","0.1212"
"90.6000","146.3700","0.1213"
"90.9000","146.4697","0.1213"
"91.2000","146.5700","0.1214"
"91.5000","146.6705","0.1214"
"91.8000","146.7698","0.1215"
"92.1000","146.8696","0.1216"
"92.4000","146.9701","0.1216"
"92.7000","147.0703","0.1217"
"93.0000","147.1698","0.1217"
"93.3000","147.2696","0.1218"
"93.6000","147.3700","0.1218"
"93.9000","147.4704","0.1219"
"94.2000","147.5698","0.1219"
"94.5000","147.6697","0.1220"
"94.8000","147.7702","0.1221"
"95.1000","147.8704","0.1221"
"95.4000","147.9700","0.1222"
"95.7000","148.0698","0.1222"
"96.0000","148.1701","0.1224"
"96.3000","148.2704","0.1224"
"96.6000","148.3698","0.1225"
"96.9000","148.4697","0.1226"
"97.2000","148.5701","0.1226"
"97.5000","148.6702","0.1227"
"97.8000","148.7698","0.1227"
"98.1000","148.8697","0.1228"
"98.4000","148.9702","0.1229"
"98.7000","149.0704","0.1229"
"99.0000","149.1698","0.1229"
"99.3000","149.2696","0.1230"
"99.6000","149.3701","0.1230"
"99.9000","149.4704","0.1231"
"100.2000","149.5700","0.1232"
"100.5000","149.6697","0.1232"
"100.8000","149.7700","0.1233"
"101.1000","149.8704","0.1233"
"101.4000","149.9700","0.1234"
"101.7000","150.0697","0.1234"
"102.0000","150.1701","0.1235"
"102.3000","150.2702","0.1235"
"102.6000","150.3698","0.1236"
"102.9000","150.4697","0.1236"
"103.2000","150.5700","0.1237"
"103.5000","150.6705","0.1237"
"103.8000","150.7700","0.1238"
"104.1000","150.8696","0.1238"
"104.4000","150.9701","0.1239"
"104.7000","151.0704","0.1240"
"105.0000","151.1701","0.1240"
"105.3000","151.2697","0.1241"
"105.6000","151.3700","0.1242"
"105.9000","151.4704","0.1242"
"106.2000","151.5700","0.1243"
"106.5000","151.6696","0.1243"
"106.8000","151.7701","0.1244"
"107.1000","151.8704","0.1245"
"107.4000","151.9698","0.1245"
"107.7000","152.0697","0.1246"
"108.0000","152.1701","0.1247"
"108.3000","152.2704","0.1248"
"108.6000","152.3700","0.1248"
"108.9000","152.4696","0.1249"
"109.2000","152.5701","0.1250"
"109.5000","152.6704","0.1251"
"109.8000","152.7701","0.1251"
"110.1000","152.8698","0.1252"
"110.4000","152.9698","0.1252"
"110.7000","153.0702","0.1253"
"111.0000","153.1700","0.1254"
"111.3000","153.2696","0.1254"
"111.6000","153.3701","0.1255"
"111.9000","153.4704","0.1255"
"112.2000","153.5699","0.1256"
"112.5000","153.6696","0.1256"
"112.8000","153.7700","0.1257"
"113.1000","153.8705","0.1258"
"113.4000","153.9698","0.1258"
"113.7000","154.0696","0.1259"
"114.0000","154.1701","0.1259"
"114.3000","154.2704","0.1259"
"114.6000","154.3700","0.1260"
"114.9000","154.4697","0.1260"
"115.2000","154.5700","0.1261"
"115.5000","154.6705","0.1261"
"115.8000","154.7698","0.1261"
"116.1000","154.8696","0.1262"
"116.4000","154.9701","0.1262"
"116.7000","155.0704","0.1262"
"117.0000","155.1700","0.1262"
"117.3000","155.2697","0.1263"
"117.6000","155.3701","0.1263"
"117.9000","155.4705","0.1263"
"118.2000","155.5700","0.1263"
"118.5000","155.6697","0.1263"
"118.8000","155.7702","0.1263"
"119.1000","155.8704","0.1264"
"119.4000","155.9700","0.1264"
"119.7000","156.0697","0.1264"
"120.0000","156.1700","0.1265"
"120.3000","156.2705","0.1265"
"120.6000","156.3700","0.1265"
"120.9000","156.4697","0.1265"
"121.2000","156.5701","0.1266"
"121.5000","156.6702","0.1266"
"121.8000","156.7698","0.1266"
"122.1000","156.8697","0.1267"
"122.4000","156.9701","0.1267"
"122.7000","157.0704","0.1267"
"123.0000","157.1700","0.1267"
"123.3000","157.2696","0.1268"
"123.6000","157.3701","0.1268"
"123.9000","157.4704","0.1269"
"124.2000","157.5700","0.1268"
"124.5000","157.6697","0.1269"
"124.8000","157.7700","0.1269"
"125.1000","157.8705","0.1270"
"125.4000","157.9700","0.1269"
"125.7000","158.0697","0.1270"
"126.0000","158.1702","0.1270"
"126.3000","158.2702","0.1271"
"126.6000","158.3698","0.1271"
"126.9000","158.4697","0.1271"
"127.2000","158.5700","0.1271"
"127.5000","158.6705","0.1271"
"127.8000","158.7700","0.1271"
"128.1000","158.8697","0.1271"
"128.4000","158.9701","0.1272"
"128.7000","159.0704","0.1272"
"129.0000","159.1701","0.1272"
"129.3000","159.2697","0.1272"
"129.6000","159.3700","0.1272"
"129.9000","159.4704","0.1272"
"130.2000","159.5700","0.1273"
"130.5000","159.6697","0.1272"
"130.8000","159.7701","0.1273"
"131.1000","159.8702","0.1272"
"131.4000","159.9698","0.1272"
"131.7000","160.0697","0.1272"
"132.0000","160.1700","0.1272"
"132.3000","160.2705","0.1272"
"132.6000","160.3701","0.1273"
"132.9000","160.4696","0.1273"
"133.2000","160.5701","0.1273"
"133.5000","160.6704","0.1274"
"133.8000","160.7701","0.1274"
"134.1000","160.8697","0.1274"
"134.4000","160.9700","0.1274"
"134.7000","161.0704","0.1275"
"135.0000","161.1698","0.1275"
"135.3000","161.2696","0.1275"
"135.6000","161.3701","0.1275"
"135.9000","161.4702","0.1276"
"136.2000","161.5698","0.1276"
"136.5000","161.6696","0.1276"
"136.8000","161.7700","0.1276"
"137.1000","161.8705","0.1276"
"137.4000","161.9700","0.1276"
"137.7000","162.0696","0.1277"
"138.0000","162.1701","0.1277"
"138.3000","162.2704","0.1277"
"138.6000","162.3698","0.1277"
"138.9000","162.4698","0.1278"
"139.2000","162.5700","0.1278"
"139.5000","162.6704","0.1278"
"139.8000","162.7700","0.1278"
"140.1000","162.8696","0.1278"
"140.4000","162.9701","0.1278"
"140.7000","163.0703","0.1278"
"141.0000","163.1700","0.1278"
"141.3000","163.2697","0.1278"
"141.6000","163.3700","0.1278"
"141.9000","163.4705","0.1278"
"142.2000","163.5700","0.1278"
"142.5000","163.6697","0.1278"
"142.8000","163.7701","0.1278"
"143.1000","163.8705","0.1277"
"143.4000","163.9700","0.1277"
"143.7000","164.0697","0.1276"
"144.0000","164.1700","0.1275"
"144.3000","164.2705","0.1274"
"144.6000","164.3700","0.1273"
"144.9000","164.4697","0.1272"
"145.2000","164.5701","0.1272"
"145.5000","164.6702","0.1271"
"145.8000","164.7700","0.1271"
"146.1000","164.8697","0.1270"
"146.4000","164.9700","0.1270"
"146.7000","165.0705","0.1270"
"147.0000","165.1700","0.1270"
"147.3000","165.2696","0.1270"
"147.6000","165.3701","0.1270"
"147.9000","165.4704","0.1270"
"148.2000","165.5698","0.1270"
"148.5000","165.6697","0.1270"
"148.8000","165.7700","0.1270"
"149.1000","165.8704","0.1270"
"149.4000","165.9700","0.1271"
"149.7000","166.0697","0.1271"
"150.0000","166.1700","0.1271"
"150.3000","166.2701","0.1272"
"150.6000","166.3700","0.1272"
"150.9000","166.4697","0.1273"
"151.2000","166.5700","0.1273"
"151.5000","166.6705","0.1273"
"151.8000","166.7700","0.1274"
"152.1000","166.8696","0.1274"
"152.4000","166.9702","0.1275"
"152.7000","167.0704","0.1275"
"153.0000","167.1700","0.1275"
"153.3000","167.2697","0.1275"
"153.6000","167.3700","0.1276"
"153.9000","167.4704","0.1277"
"154.2000","167.5698","0.1277"
"154.5000","167.6696","0.1278"
"154.8000","167.7701","0.1278"
"155.1000","167.8702","0.1278"
"155.4000","167.9698","0.1279"
"155.7000","168.0697","0.1279"
"156.0000","168.1700","0.1280"
"156.3000","168.2705","0.1281"
"156.6000","168.3701","0.1281"
"156.9000","168.4697","0.1282"
"157.2000","168.5701","0.1283"
"157.5000","168.6705","0.1284"
"157.8000","168.7698","0.1284"
"158.1000","168.8697","0.1285"
"158.4000","168.9700","0.1285"
"158.7000","169.0704","0.1286"
"159.0000","169.1698","0.1286"
"159.3000","169.2697","0.1287"
"159.6000","169.3701","0.1288"
"159.9000","169.4702","0.1288"
"160.2000","169.5698","0.1289"
"160.5000","169.6697","0.1289"
"160.8000","169.7700","0.1290"
"161.1000","169.8704","0.1291"
"161.4000","169.9700","0.1291"
"161.7000","170.0697","0.1292"
"162.0000","170.1701","0.1292"
"162.3000","170.2704","0.1293"
"162.6000","170.3700","0.1293"
"162.9000","170.4697","0.1294"
"163.2000","170.5700","0.1295"
"163.5000","170.6704","0.1295"
"163.8000","170.7700","0.1296"
"164.1000","170.8697","0.1296"
"164.4000","170.9701","0.1298"
"164.7000","171.0702","0.1298"
"165.0000","171.1698","0.1298"
"165.3000","171.2697","0.1299"
"165.6000","171.3700","0.1300"
"165.9000","171.4705","0.1301"
"166.2000","171.5700","0.1302"
"166.5000","171.6697","0.1302"
"166.8000","171.7702","0.1303"
"167.1000","171.8704","0.1303"
"167.4000","171.9700","0.1304"
"167.7000","172.0697","0.1304"
"168.0000","172.1701","0.1306"
"168.3000","172.2704","0.1306"
"168.6000","172.3700","0.1307"
"168.9000","172.4697","0.1307"
"169.2000","172.5701","0.1308"
"169.5000","172.6702","0.1309"
"169.8000","172.7699","0.1308"
"170.1000","172.8697","0.1309"
"170.4000","172.9700","0.1310"
"170.7000","173.0704","0.1311"
"171.0000","173.1700","0.1311"
"171.3000","173.2696","0.1312"
"171.6000","173.3701","0.1312"
"171.9000","173.4704","0.1313"
"172.2000","173.5700","0.1313"
"172.5000","173.6697","0.1313"
"172.8000","173.7700","0.1314"
"173.1000","173.8704","0.1315"
"173.4000","173.9698","0.1315"
"173.7000","174.0697","0.1315"
"174.0000","174.1701","0.1316"
"174.3000","174.2702","0.1316"
"174.6000","174.3698","0.1316"
"174.9000","174.4697","0.1317"
"175.2000","174.5700","0.1317"
"175.5000","174.6705","0.1318"
"175.8000","174.7698","0.1318"
"176.1000","174.8697","0.1319"
"176.4000","174.9701","0.1319"
"176.7000","175.0704","0.1319"
"177.0000","175.1700","0.1320"
"177.3000","175.2697","0.1320"
"177.6000","175.3701","0.1320"
"177.9000","175.4704","0.1320"
"178.2000","175.5699","0.1320"
"178.5000","175.6697","0.1321"
"178.8000","175.7701","0.1321"
"179.1000","175.8702","0.1321"
"179.4000","175.9700","0.1321"
"179.7000","176.0696","0.1321"
"180.0000","176.1700","0.1322"
"180.3000","176.2704","0.1321"
"180.6000","176.3700","0.1322"
"180.9000","176.4696","0.1322"
"181.2000","176.5702","0.1322"
"181.5000","176.6705","0.1322"
"181.8000","176.7700","0.1322"
"182.1000","176.8697","0.1323"
"182.4000","176.9700","0.1323"
"182.7000","177.0704","0.1324"
"183.0000","177.1700","0.1324"
"183.3000","177.2697","0.1324"
"183.6000","177.3702","0.1324"
"183.9000","177.4704","0.1325"
"184.2000","177.5697","0.1325"
"184.5000","177.6696","0.1326"
"184.8000","177.7701","0.1326"
"185.1000","177.8704","0.1326"
"185.4000","177.9700","0.1326"
"185.7000","178.0696","0.1327"
"186.0000","178.1701","0.1327"
"186.3000","178.2704","0.1327"
"186.6000","178.3700","0.1328"
"186.9000","178.4698","0.1328"
"187.2000","178.5700","0.1328"
"187.5000","178.6704","0.1328"
"187.8000","178.7698","0.1328"
"188.1000","178.8697","0.1328"
"188.4000","178.9701","0.1329"
"188.7000","179.0702","0.1329"
"189.0000","179.1698","0.1329"
"189.3000","179.2698","0.1329"
"189.6000","179.3700","0.1328"
"189.9000","179.4705","0.1329"
"190.2000","179.5700","0.1328"
"190.5000","179.6697","0.1329"
"190.8000","179.7702","0.1329"
"191.1000","179.8704","0.1329"
"191.4000","179.9700","0.1329"
"191.7000","180.0698","0.1329"
"192.0000","180.1701","0.1330"
"192.3000","180.2704","0.1330"
"192.6000","180.3700","0.1330"
"192.9000","180.4697","0.1330"
"193.2000","180.5703","0.1330"
"193.5000","180.6702","0.1331"
"193.8000","180.7700","0.1331"
"194.1000","180.8696","0.1331"
"194.4000","180.9701","0.1331"
"194.7000","181.0705","0.1332"
"195.0000","181.1700","0.1332"
"195.3000","181.2696","0.1332"
"195.6000","181.3701","0.1332"
"195.9000","181.4704","0.1332"
"196.2000","181.5700","0.1332"
"196.5000","181.6697","0.1332"
"196.8000","181.7700","0.1333"
"197.1000","181.8704","0.1333"
"197.4000","181.9698","0.1333"
"197.7000","182.0696","0.1332"
"198.0000","182.1701","0.1333"
"198.3000","182.2702","0.1333"
"198.6000","182.3700","0.1333"
"198.9000","182.4697","0.1334"
"199.2000","182.5700","0.1334"
"199.5000","182.6704","0.1335"
"199.8000","182.7700","0.1335"
"200.1000","182.8697","0.1336"
"200.4000","182.9701","0.1336"
"200.7000","183.0704","0.1337"
"201.0000","183.1700","0.1337"
"201.3000","183.2696","0.1338"
"201.6000","183.3700","0.1338"
"201.9000","183.4705","0.1339"
"202.2000","183.5700","0.1340"
"202.5000","183.6697","0.1340"
"202.8000","183.7701","0.1341"
"203.1000","183.8702","0.1342"
"203.4000","183.9698","0.1342"
"203.7000","184.0697","0.1343"
"204.0000","184.1700","0.1343"
"204.3000","184.2704","0.1344"
"204.6000","184.3698","0.1344"
"204.9000","184.4697","0.1345"
"205.2000","184.5702","0.1345"
"205.5000","184.6704","0.1346"
"205.8000","184.7700","0.1346"
"206.1000","184.8698","0.1347"
"206.4000","184.9700","0.1348"
"206.7000","185.0704","0.1348"
"207.0000","185.1700","0.1349"
"207.3000","185.2696","0.1349"
"207.6000","185.3700","0.1350"
"207.9000","185.4702","0.1351"
"208.2000","185.5698","0.1352"
"208.5000","185.6696","0.1352"
"208.8000","185.7700","0.1353"
"209.1000","185.8704","0.1354"
"209.4000","185.9700","0.1354"
"209.7000","186.0697","0.1355"
"210.0000","186.1701","0.1355"
"210.3000","186.2705","0.1356"
"210.6000","186.3701","0.1356"
"210.9000","186.4697","0.1357"
"211.2000","186.5698","0.1357"
"211.5000","186.6704","0.1358"
"211.8000","186.7701","0.1359"
"212.1000","186.8697","0.1359"
"212.4000","186.9701","0.1360"
"212.7000","187.0702","0.1360"
"213.0000","187.1698","0.1360"
"213.3000","187.2697","0.1361"
"213.6000","187.3700","0.1361"
"213.9000","187.4705","0.1362"
"214.2000","187.5698","0.1362"
"214.5000","187.6697","0.1362"
"214.8000","187.7701","0.1363"
"215.1000","187.8704","0.1364"
"215.4000","187.9700","0.1364"
"215.7000","188.0697","0.1364"
"216.0000","188.1700","0.1365"
"216.3000","188.2704","0.1366"
"216.6000","188.3700","0.1366"
"216.9000","188.4697","0.1366"
"217.2000","188.5703","0.1367"
"217.5000","188.6702","0.1368"
"217.8000","188.7700","0.1368"
"218.1000","188.8697","0.1369"
"218.4000","188.9698","0.1369"
"218.7000","189.0705","0.1370"
"219.0000","189.1700","0.1370"
"219.3000","189.2696","0.1370"
"219.6000","189.3701","0.1371"
"219.9000","189.4704","0.1371"
"220.2000","189.5700","0.1371"
"220.5000","189.6697","0.1372"
"220.8000","189.7700","0.1372"
"221.1000","189.8704","0.1372"
"221.4000","189.9700","0.1373"
"221.7000","190.0696","0.1374"
"222.0000","190.1702","0.1374"
"222.3000","190.2702","0.1374"
"222.6000","190.3698","0.1374"
"222.9000","190.4697","0.1375"
"223.2000","190.5700","0.1375"
"223.5000","190.6704","0.1375"
"223.8000","190.7700","0.1375"
"224.1000","190.8697","0.1376"
"224.4000","190.9701","0.1375"
"224.7000","191.0705","0.1376"
"225.0000","191.1698","0.1376"
"225.3000","191.2697","0.1376"
"225.6000","191.3701","0.1376"
"225.9000","191.4704","0.1376"
"226.2000","191.5700","0.1376"
"226.5000","191.6697","0.1377"
"226.8000","191.7701","0.1376"
"227.1000","191.8702","0.1377"
"227.4000","191.9700","0.1376"
"227.7000","192.0697","0.1377"
"228.0000","192.1700","0.1377"
"228.3000","192.2702","0.1377"
"228.6000","192.3700","0.1378"
"228.9000","192.4697","0.1378"
"229.2000","192.5702","0.1378"
"229.5000","192.6704","0.1379"
"229.8000","192.7701","0.1379"
"230.1000","192.8697","0.1380"
"230.4000","192.9700","0.1380"
"230.7000","193.0704","0.1381"
"231.0000","193.1698","0.1381"
"231.3000","193.2697","0.1382"
"231.6000","193.3701","0.1382"
"231.9000","193.4702","0.1383"
"232.2000","193.5698","0.1383"
"232.5000","193.6696","0.1384"
"232.8000","193.7700","0.1385"
"233.1000","193.8704","0.1385"
"233.4000","193.9700","0.1386"
"233.7000","194.0697","0.1386"
"234.0000","194.1701","0.1387"
"234.3000","194.2705","0.1388"
"234.6000","194.3700","0.1388"
"234.9000","194.4698","0.1388"
"235.2000","194.5701","0.1389"
"235.5000","194.6701","0.1390"
"235.8000","194.7700","0.1390"
"236.1000","194.8697","0.1391"
"236.4000","194.9701","0.1391"
"236.7000","195.0704","0.1392"
"237.0000","195.1698","0.1393"
"237.3000","195.2697","0.1393"
"237.6000","195.3700","0.1394"
"237.9000","195.4705","0.1395"
"238.2000","195.5700","0.1395"
"238.5000","195.6697","0.1396"
"238.8000","195.7702","0.1397"
"239.1000","195.8704","0.1397"
"239.4000","195.9700","0.1398"
"239.7000","196.0697","0.1399"
"240.0000","196.1700","0.1400"
"240.3000","196.2704","0.1400"
"240.6000","196.3700","0.1401"
"240.9000","196.4696","0.1402"
"241.2000","196.5701","0.1402"
"241.5000","196.6701","0.1403"
"241.8000","196.7698","0.1403"
"242.1000","196.8697","0.1404"
"242.4000","196.9700","0.1405"
"242.7000","197.0704","0.1406"
"243.0000","197.1701","0.1406"
"243.3000","197.2697","0.1407"
"243.6000","197.3701","0.1408"
"243.9000","197.4704","0.1408"
"244.2000","197.5700","0.1409"
"244.5000","197.6697","0.1410"
"244.8000","197.7698","0.1411"
"245.1000","197.8704","0.1411"
"245.4000","197.9698","0.1412"
"245.7000","198.0696","0.1412"
"246.0000","198.1701","0.1413"
"246.3000","198.2704","0.1414"
"246.6000","198.3700","0.1414"
"246.9000","198.4696","0.1415"
"247.2000","198.5701","0.1415"
"247.5000","198.6704","0.1416"
"247.8000","198.7700","0.1416"
"248.1000","198.8696","0.1417"
"248.4000","198.9702","0.1418"
"248.7000","199.0704","0.1418"
"249.0000","199.1700","0.1418"
"249.3000","199.2697","0.1419"
"249.6000","199.3700","0.1419"
"249.9000","199.4704","0.1419"
"250.2000","199.5698","0.1420"
"250.5000","199.6696","0.1420"
"250.8000","199.7702","0.1421"
"251.1000","199.8704","0.1421"
"251.4000","199.9698","0.1421"
"251.7000","200.0697","0.1422"
"252.0000","200.1701","0.1422"
"252.3000","200.2705","0.1422"
"252.6000","200.3697","0.1423"
"252.9000","200.4697","0.1423"
"253.2000","200.5701","0.1424"
"253.5000","200.6704","0.1424"
"253.8000","200.7701","0.1424"
"254.1000","200.8697","0.1425"
"254.4000","200.9700","0.1425"
"254.7000","201.0704","0.1426"
"255.0000","201.1698","0.1426"
"255.3000","201.2697","0.1426"
"255.6000","201.3701","0.1427"
"255.9000","201.4702","0.1427"
"256.2000","201.5697","0.1427"
"256.5000","201.6697","0.1427"
"256.8000","201.7701","0.1428"
"257.1000","201.8705","0.1428"
"257.4000","201.9700","0.1429"
"257.7000","202.0697","0.1429"
"258.0000","202.1701","0.1429"
"258.3000","202.2704","0.1430"
"258.6000","202.3700","0.1431"
"258.9000","202.4697","0.1431"
"259.2000","202.5700","0.1431"
"259.5000","202.6704","0.1433"
"259.8000","202.7700","0.1433"
"260.1000","202.8697","0.1433"
"260.4000","202.9702","0.1434"
"260.7000","203.0704","0.1434"
"261.0000","203.1700","0.1435"
"261.3000","203.2697","0.1435"
"261.6000","203.3701","0.1436"
"261.9000","203.4704","0.1436"
"262.2000","203.5698","0.1437"
"262.5000","203.6696","0.1437"
"262.8000","203.7701","0.1438"
"263.1000","203.8704","0.1438"
"263.4000","203.9700","0.1439"
"263.7000","204.0698","0.1439"
"264.0000","204.1700","0.1440"
"264.3000","204.2704","0.1440"
"264.6000","204.3700","0.1441"
"264.9000","204.4697","0.1441"
"265.2000","204.5701","0.1441"
"265.5000","204.6704","0.1442"
"265.8000","204.7700","0.1442"
"266.1000","204.8697","0.1442"
"266.4000","204.9700","0.1443"
"266.7000","205.0705","0.1443"
"267.0000","205.1700","0.1443"
"267.3000","205.2696","0.1443"
"267.6000","205.3701","0.1444"
"267.9000","205.4704","0.1444"
"268.2000","205.5700","0.1444"
"268.5000","205.6697","0.1444"
"268.8000","205.7700","0.1444"
"269.1000","205.8704","0.1444"
"269.4000","205.9698","0.1444"
"269.7000","206.0696","0.1445"
"270.0000","206.1701","0.1445"
"270.3000","206.2702","0.1446"
"270.6000","206.3700","0.1446"
"270.9000","206.4697","0.1446"
"271.2000","206.5701","0.1447"
"271.5000","206.6704","0.1447"
"271.8000","206.7700","0.1447"
"272.1000","206.8696","0.1447"
"272.4000","206.9702","0.1448"
"272.7000","207.0704","0.1448"
"273.0000","207.1700","0.1449"
"273.3000","207.2698","0.1449"
"273.6000","207.3700","0.1449"
"273.9000","207.4705","0.1450"
"274.2000","207.5700","0.1450"
"274.5000","207.6696","0.1450"
"274.8000","207.7702","0.1451"
"275.1000","207.8702","0.1451"
"275.4000","207.9700","0.1451"
"275.7000","208.0697","0.1452"
"276.0000","208.1700","0.1452"
"276.3000","208.2704","0.1452"
"276.6000","208.3700","0.1452"
"276.9000","208.4696","0.1453"
"277.2000","208.5701","0.1454"
"277.5000","208.6705","0.1454"
"277.8000","208.7700","0.1454"
"278.1000","208.8696","0.1455"
"278.4000","208.9701","0.1456"
"278.7000","209.0705","0.1456"
"279.0000","209.1700","0.1457"
"279.3000","209.2697","0.1457"
"279.6000","209.3701","0.1458"
"279.9000","209.4704","0.1458"
"280.2000","209.5698","0.1458"
"280.5000","209.6697","0.1459"
"280.8000","209.7701","0.1460"
"281.1000","209.8704","0.1460"
"281.4000","209.9700","0.1461"
"281.7000","210.0697","0.1461"
"282.0000","210.1701","0.1462"
"282.3000","210.2704","0.1462"
"282.6000","210.3700","0.1463"
"282.9000","210.4697","0.1463"
"283.2000","210.5700","0.1464"
"283.5000","210.6704","0.1465"
"283.8000","210.7700","0.1465"
"284.1000","210.8696","0.1466"
"284.4000","210.9701","0.1466"
"284.7000","211.0702","0.1467"
"285.0000","211.1698","0.1467"
"285.3000","211.2697","0.1467"
"285.6000","211.3701","0.1468"
"285.9000","211.4705","0.1468"
"286.2000","211.5700","0.1469"
"286.5000","211.6696","0.1469"
"286.8000","211.7700","0.1470"
"287.1000","211.8705","0.1471"
"287.4000","211.9700","0.1471"
"287.7000","212.0697","0.1471"
"288.0000","212.1700","0.1472"
"288.3000","212.2704","0.1473"
"288.6000","212.3698","0.1473"
"288.9000","212.4696","0.1474"
"289.2000","212.5701","0.1474"
"289.5000","212.6702","0.1475"
"289.8000","212.7698","0.1474"
"290.1000","212.8697","0.1475"
"290.4000","212.9700","0.1476"
"290.7000","213.0704","0.1476"
"291.0000","213.1700","0.1476"
"291.3000","213.2696","0.1476"
"291.6000","213.3701","0.1477"
"291.9000","213.4704","0.1477"
"292.2000","213.5698","0.1477"
"292.5000","213.6697","0.1478"
"292.8000","213.7700","0.1478"
"293.1000","213.8704","0.1479"
"293.4000","213.9698","0.1479"
"293.7000","214.0697","0.1479"
"294.0000","214.1701","0.1480"
"294.3000","214.2702","0.1479"
"294.6000","214.3698","0.1480"
"294.9000","214.4696","0.1480"
"295.2000","214.5700","0.1481"
"295.5000","214.6705","0.1482"
"295.8000","214.7700","0.1482"
"296.1000","214.8697","0.1482"
"296.4000","214.9701","0.1482"
"296.7000","215.0704","0.1483"
"297.0000","215.1700","0.1483"
"297.3000","215.2697","0.1483"
"297.6000","215.3700","0.1484"
"297.9000","215.4704","0.1484"
"298.2000","215.5698","0.1484"
"298.5000","215.6697","0.1485"
"298.8000","215.7700","0.1485"
"299.1000","215.8704","0.1486"
"299.4000","215.9698","0.1486"
"299.7000","216.0697","0.1487"
"300.0000","216.1700","0.1487"
"300.3000","216.2704","0.1488"
"300.6000","216.3700","0.1489"
"300.9000","216.4697","0.1489"
"301.2000","216.5701","0.1490"
"301.5000","216.6704","0.1490"
"301.8000","216.7700","0.1491"
"302.1000","216.8697","0.1491"
"302.4000","216.9701","0.1492"
"302.7000","217.0704","0.1492"
"303.0000","217.1698","0.1493"
"303.3000","217.2697","0.1493"
"303.6000","217.3701","0.1494"
"303.9000","217.4701","0.1494"
"304.2000","217.5700","0.1495"
"304.5000","217.6697","0.1495"
"304.8000","217.7700","0.1496"
"305.1000","217.8705","0.1496"
"305.4000","217.9700","0.1497"
"305.7000","218.0697","0.1497"
"306.0000","218.1701","0.1497"
"306.3000","218.2705","0.1498"
"306.6000","218.3700","0.1498"
"306.9000","218.4697","0.1498"
"307.2000","218.5700","0.1499"
"307.5000","218.6705","0.1499"
"307.8000","218.7700","0.1500"
"308.1000","218.8697","0.1500"
"308.4000","218.9701","0.1501"
"308.7000","219.0704","0.1501"
"309.0000","219.1698","0.1501"
"309.3000","219.2697","0.1501"
"309.6000","219.3700","0.1502"
"309.9000","219.4704","0.1502"
"310.2000","219.5700","0.1502"
"310.5000","219.6696","0.1502"
"310.8000","219.7701","0.1502"
"311.1000","219.8704","0.1502"
"311.4000","219.9700","0.1503"
"311.7000","220.0697","0.1503"
"312.0000","220.1701","0.1503"
"312.3000","220.2704","0.1504"
"312.6000","220.3700","0.1504"
"312.9000","220.4697","0.1505"
"313.2000","220.5702","0.1506"
"313.5000","220.6702","0.1506"
"313.8000","220.7700","0.1507"
"314.1000","220.8697","0.1507"
"314.4000","220.9700","0.1507"
"314.7000","221.0705","0.1508"
"315.0000","221.1700","0.1509"
"315.3000","221.2697","0.1509"
"315.6000","221.3701","0.1510"
"315.9000","221.4704","0.1510"
"316.2000","221.5700","0.1511"
"316.5000","221.6697","0.1511"
"316.8000","221.7700","0.1512"
"317.1000","221.8704","0.1512"
"317.4000","221.9698","0.1513"
"317.7000","222.0697","0.1513"
"318.0000","222.1702","0.1513"
"318.3000","222.2704","0.1513"
"318.6000","222.3698","0.1513"
"318.9000","222.4697","0.1513"
"319.2000","222.5700","0.1514"
"319.5000","222.6705","0.1514"
"319.8000","222.7698","0.1514"
"320.1000","222.8697","0.1514"
"320.4000","222.9701","0.1515"
"320.7000","223.0704","0.1515"
"321.0000","223.1700","0.1516"
"321.3000","223.2697","0.1516"
"321.6000","223.3700","0.1516"
"321.9000","223.4704","0.1517"
"322.2000","223.5698","0.1517"
"322.5000","223.6697","0.1518"
"322.8000","223.7701","0.1518"
"323.1000","223.8702","0.1518"
"323.4000","223.9698","0.1519"
"323.7000","224.0697","0.1520"
"324.0000","224.1700","0.1520"
"324.3000","224.2704","0.1520"
"324.6000","224.3700","0.1521"
"324.9000","224.4697","0.1521"
"325.2000","224.5703","0.1522"
"325.5000","224.6702","0.1522"
"325.8000","224.7700","0.1523"
"326.1000","224.8697","0.1523"
"326.4000","224.9700","0.1524"
"326.7000","225.0702","0.1525"
"327.0000","225.1698","0.1526"
"327.3000","225.2697","0.1526"
"327.6000","225.3702","0.1527"
"327.9000","225.4702","0.1528"
"328.2000","225.5698","0.1528"
"328.5000","225.6696","0.1529"
"328.8000","225.7701","0.1530"
"329.1000","225.8704","0.1530"
"329.4000","225.9700","0.1531"
"329.7000","226.0697","0.1532"
"330.0000","226.1701","0.1533"
"330.3000","226.2704","0.1533"
"330.6000","226.3700","0.1534"
"330.9000","226.4698","0.1534"
"331.2000","226.5701","0.1535"
"331.5000","226.6704","0.1535"
"331.8000","226.7698","0.1536"
"332.1000","226.8697","0.1536"
"332.4000","226.9701","0.1537"
"332.7000","227.0702","0.1537"
"333.0000","227.1700","0.1537"
"333.3000","227.2697","0.1538"
"333.6000","227.3700","0.1538"
"333.9000","227.4704","0.1539"
"334.2000","227.5700","0.1539"
"334.5000","227.6697","0.1539"
"334.8000","227.7701","0.1540"
"335.1000","227.8705","0.1540"
"335.4000","227.9700","0.1541"
"335.7000","228.0697","0.1541"
"336.0000","228.1700","0.1542"
"336.3000","228.2704","0.1542"
"336.6000","228.3700","0.1542"
"336.9000","228.4696","0.1543"
"337.2000","228.5702","0.1544"
"337.5000","228.6702","0.1544"
"337.8000","228.7698","0.1544"
"338.1000","228.8696","0.1544"
"338.4000","228.9700","0.1545"
"338.7000","229.0704","0.1545"
"339.0000","229.1700","0.1546"
"339.3000","229.2696","0.1546"
"339.6000","229.3701","0.1547"
"339.9000","229.4702","0.1547"
"340.2000","229.5700","0.1548"
"340.5000","229.6698","0.1548"
"340.8000","229.7701","0.1548"
"341.1000","229.8704","0.1549"
"341.4000","229.9700","0.1550"
"341.7000","230.0696","0.1550"
"342.0000","230.1701","0.1551"
"342.3000","230.2702","0.1551"
"342.6000","230.3698","0.1551"
"342.9000","230.4697","0.1552"
"343.2000","230.5700","0.1552"
"343.5000","230.6705","0.1553"
"343.8000","230.7698","0.1553"
"344.1000","230.8696","0.1554"
"344.4000","230.9702","0.1555"
"344.7000","231.0704","0.1555"
"345.0000","231.1700","0.1556"
"345.3000","231.2697","0.1556"
"345.6000","231.3700","0.1557"
"345.9000","231.4704","0.1558"
"346.2000","231.5700","0.1558"
"346.5000","231.6697","0.1559"
"346.8000","231.7702","0.1560"
"347.1000","231.8702","0.1560"
"347.4000","231.9700","0.1561"
"347.7000","232.0696","0.1562"
"348.0000","232.1700","0.1562"
"348.3000","232.2705","0.1563"
"348.6000","232.3698","0.1563"
"348.9000","232.4696","0.1563"
"349.2000","232.5703","0.1564"
"349.5000","232.6704","0.1565"
"349.8000","232.7700","0.1565"
"350.1000","232.8697","0.1566"
"350.4000","232.9700","0.1567"
"350.7000","233.0704","0.1567"
"351.0000","233.1698","0.1567"
"351.3000","233.2697","0.1568"
"351.6000","233.3701","0.1569"
"351.9000","233.4702","0.1569"
"352.2000","233.5698","0.1569"
"352.5000","233.6698","0.1569"
"352.8000","233.7701","0.1570"
"353.1000","233.8704","0.1571"
"353.4000","233.9700","0.1570"
"353.7000","234.0697","0.1571"
"354.0000","234.1701","0.1572"
"354.3000","234.2705","0.1572"
"354.6000","234.3700","0.1572"
"354.9000","234.4696","0.1573"
"355.2000","234.5698","0.1574"
"355.5000","234.6704","0.1574"
"355.8000","234.7698","0.1575"
"356.1000","234.8696","0.1575"
"356.4000","234.9701","0.1576"
"356.7000","235.0702","0.1576"
"357.0000","235.1700","0.1576"
"357.3000","235.2697","0.1577"
"357.6000","235.3701","0.1577"
"357.9000","235.4705","0.1577"
"358.2000","235.5698","0.1577"
"358.5000","235.6696","0.1578"
"358.8000","235.7701","0.1578"
"359.1000","235.8704","0.1578"
"359.4000","235.9700","0.1578"
"359.7000","236.0697","0.1578"
"360.0000","236.1700","0.1578"
"360.3000","236.2702","0.1578"
"360.6000","236.3700","0.1579"
"360.9000","236.4697","0.1578"
"361.2000","236.5702","0.1578"
"361.5000","236.6704","0.1579"
"361.8000","236.7698","0.1579"
"362.1000","236.8697","0.1579"
"362.4000","236.9700","0.1579"
"362.7000","237.0705","0.1579"
"363.0000","237.1700","0.1579"
"363.3000","237.2697","0.1579"
"363.6000","237.3701","0.1580"
"363.9000","237.4704","0.1580"
"364.2000","237.5700","0.1580"
"364.5000","237.6696","0.1580"
"364.8000","237.7698","0.1580"
"365.1000","237.8704","0.1580"
"365.4000","237.9701","0.1580"
"365.7000","238.0697","0.1579"
"366.0000","238.1701","0.1579"
"366.3000","238.2702","0.1579"
"366.6000","238.3698","0.1579"
"366.9000","238.4697","0.1579"
"367.2000","238.5701","0.1578"
"367.5000","238.6704","0.1579"
"367.8000","238.7700","0.1579"
"368.1000","238.8697","0.1578"
"368.4000","238.9700","0.1579"
"368.7000","239.0704","0.1579"
"369.0000","239.1701","0.1579"
"369.3000","239.2697","0.1579"
"369.6000","239.3701","0.1580"
"369.9000","239.4704","0.1580"
"370.2000","239.5698","0.1581"
"370.5000","239.6696","0.1581"
"370.8000","239.7701","0.1582"
"371.1000","239.8702","0.1582"
"371.4000","239.9700","0.1583"
"371.7000","240.0697","0.1583"
"372.0000","240.1698","0.1584"
"372.3000","240.2705","0.1584"
"372.6000","240.3700","0.1584"
"372.9000","240.4697","0.1584"
"373.2000","240.5702","0.1585"
"373.5000","240.6704","0.1585"
"373.8000","240.7700","0.1585"
"374.1000","240.8697","0.1585"
"374.4000","240.9700","0.1586"
"374.7000","241.0704","0.1586"
"375.0000","241.1700","0.1587"
"375.3000","241.2696","0.1587"
"375.6000","241.3701","0.1588"
"375.9000","241.4702","0.1588"
"376.2000","241.5698","0.1589"
"376.5000","241.6697","0.1590"
"376.8000","241.7700","0.1591"
"377.1000","241.8704","0.1591"
"377.4000","241.9700","0.1591"
"377.7000","242.0697","0.1592"
"378.0000","242.1701","0.1593"
"378.3000","242.2704","0.1594"
"378.6000","242.3700","0.1594"
"378.9000","242.4697","0.1595"
"379.2000","242.5700","0.1596"
"379.5000","242.6704","0.1597"
"379.8000","242.7698","0.1598"
"380.1000","242.8696","0.1598"
"380.4000","242.9701","0.1599"
"380.7000","243.0703","0.1600"
"381.0000","243.1700","0.1600"
"381.3000","243.2697","0.1601"
"381.6000","243.3700","0.1601"
"381.9000","243.4704","0.1602"
"382.2000","243.5701","0.1603"
"382.5000","243.6697","0.1603"
"382.8000","243.7701","0.1604"
"383.1000","243.8704","0.1604"
"383.4000","243.9700","0.1605"
"383.7000","244.0698","0.1606"
"384.0000","244.1700","0.1606"
"384.3000","244.2704","0.1607"
"384.6000","244.3698","0.1607"
"384.9000","244.4697","0.1608"
"385.2000","244.5702","0.1608"
"385.5000","244.6702","0.1609"
"385.8000","244.7700","0.1609"
"386.1000","244.8698","0.1610"
"386.4000","244.9700","0.1610"
"386.7000","245.0704","0.1610"
"387.0000","245.1700","0.1610"
"387.3000","245.2696","0.1611"
"387.6000","245.3701","0.1611"
"387.9000","245.4705","0.1611"
"388.2000","245.5701","0.1611"
"388.5000","245.6700","0.1611"
"388.8000","245.7700","0.1611"
"389.1000","245.8702","0.1611"
"389.4000","245.9700","0.1611"
"389.7000","246.0696","0.1612"
"390.0000","246.1701","0.1612"
"390.3000","246.2704","0.1612"
"390.6000","246.3698","0.1612"
"390.9000","246.4697","0.1612"
"391.2000","246.5700","0.1612"
"391.5000","246.6705","0.1612"
"391.8000","246.7700","0.1612"
"392.1000","246.8696","0.1612"
"392.4000","246.9702","0.1612"
"392.7000","247.0704","0.1612"
"393.0000","247.1700","0.1612"
"393.3000","247.2697","0.1612"
"393.6000","247.3701","0.1612"
"393.9000","247.4704","0.1612"
"394.2000","247.5700","0.1612"
"394.5000","247.6697","0.1612"
"394.8000","247.7701","0.1612"
"395.1000","247.8702","0.1612"
"395.4000","247.9700","0.1611"
"395.7000","248.0697","0.1611"
"396.0000","248.1700","0.1611"
"396.3000","248.2705","0.1611"
"396.6000","248.3701","0.1611"
"396.9000","248.4696","0.1610"
"397.2000","248.5701","0.1610"
"397.5000","248.6704","0.1609"
"397.8000","248.7700","0.1608"
"398.1000","248.8697","0.1604"
"398.4000","248.9700","0.1598"
"398.7000","249.0704","0.1575"
"399.0000","249.1698","0.1460"
"399.3000","249.2696","0.1361"
"399.6000","249.3704","0.0785"
"399.6020","249.3710","0.0775"