File: Reports and Data/Tensile testing/TENSILE TEST.is_qtest_Exports/TENSILE TEST_3.csv
Time,Displacement,Force
(s),(mm),(kN)
"0.0000","0.0000","0.0000"
"0.1000","0.0260","0.0023"
"0.2000","0.0624","0.0033"
"0.3000","0.0983","0.0045"
"0.4000","0.1325","0.0059"
"0.5000","0.1660","0.0068"
"0.6000","0.1997","0.0077"
"0.7000","0.2339","0.0087"
"0.8000","0.2672","0.0098"
"0.9000","0.3003","0.0112"
"1.0000","0.3336","0.0139"
"1.1000","0.3676","0.0157"
"1.2000","0.4008","0.0174"
"1.3000","0.4336","0.0191"
"1.4000","0.4671","0.0207"
"1.5000","0.5008","0.0223"
"1.6000","0.5340","0.0239"
"1.7000","0.5669","0.0255"
"1.8000","0.6004","0.0270"
"1.9000","0.6343","0.0286"
"2.0000","0.6673","0.0301"
"2.1000","0.7003","0.0315"
"2.2000","0.7337","0.0330"
"2.3000","0.7675","0.0345"
"2.4000","0.8005","0.0359"
"2.5000","0.8337","0.0373"
"2.6000","0.8669","0.0386"
"2.7000","0.9008","0.0400"
"2.8000","0.9341","0.0413"
"2.9000","0.9669","0.0426"
"3.0000","1.0004","0.0438"
"3.1000","1.0341","0.0451"
"3.2000","1.0673","0.0463"
"3.3000","1.1004","0.0475"
"3.4000","1.1337","0.0487"
"3.5000","1.1676","0.0499"
"3.6000","1.2008","0.0510"
"3.7000","1.2336","0.0521"
"3.8000","1.2671","0.0532"
"3.9000","1.3008","0.0543"
"4.0000","1.3340","0.0553"
"4.1000","1.3671","0.0563"
"4.2000","1.4004","0.0573"
"4.3000","1.4343","0.0584"
"4.4000","1.4675","0.0593"
"4.5000","1.5004","0.0602"
"4.6000","1.5337","0.0612"
"4.7000","1.5675","0.0621"
"4.8000","1.6008","0.0630"
"4.9000","1.6336","0.0638"
"5.0000","1.6671","0.0647"
"5.1000","1.7009","0.0656"
"5.2000","1.7340","0.0664"
"5.3000","1.7669","0.0672"
"5.4000","1.8004","0.0680"
"5.5000","1.8341","0.0687"
"5.6000","1.8673","0.0695"
"5.7000","1.9005","0.0702"
"5.8000","1.9337","0.0709"
"5.9000","1.9676","0.0717"
"6.0000","2.0008","0.0723"
"6.1000","2.0337","0.0730"
"6.2000","2.0671","0.0736"
"6.3000","2.1008","0.0743"
"6.4000","2.1340","0.0749"
"6.5000","2.1671","0.0755"
"6.6000","2.2005","0.0761"
"6.7000","2.2343","0.0767"
"6.8000","2.2673","0.0772"
"6.9000","2.3003","0.0778"
"7.0000","2.3337","0.0783"
"7.1000","2.3675","0.0789"
"7.2000","2.4007","0.0794"
"7.3000","2.4336","0.0799"
"7.4000","2.4671","0.0804"
"7.5000","2.5008","0.0809"
"7.6000","2.5341","0.0814"
"7.7000","2.5671","0.0819"
"7.8000","2.6003","0.0823"
"7.9000","2.6341","0.0828"
"8.0000","2.6673","0.0832"
"8.1000","2.7003","0.0836"
"8.2000","2.7339","0.0840"
"8.3000","2.7676","0.0844"
"8.4000","2.8007","0.0848"
"8.5000","2.8336","0.0851"
"8.6000","2.8671","0.0856"
"8.7000","2.9008","0.0859"
"8.8000","2.9339","0.0863"
"8.9000","2.9671","0.0866"
"9.0000","3.0004","0.0869"
"9.1000","3.0343","0.0873"
"9.2000","3.0675","0.0876"
"9.3000","3.1004","0.0879"
"9.4000","3.1337","0.0882"
"9.5000","3.1675","0.0885"
"9.6000","3.2007","0.0888"
"9.7000","3.2339","0.0891"
"9.8000","3.2671","0.0893"
"9.9000","3.3009","0.0897"
"10.0000","3.3340","0.0899"
"10.1000","3.3669","0.0901"
"10.2000","3.4003","0.0903"
"10.3000","3.4341","0.0906"
"10.4000","3.4673","0.0909"
"10.5000","3.5001","0.0911"
"10.6000","3.5336","0.0913"
"10.7000","3.5676","0.0916"
"10.8000","3.6008","0.0918"
"10.9000","3.6336","0.0920"
"11.0000","3.6671","0.0922"
"11.1000","3.7009","0.0924"
"11.2000","3.7340","0.0927"
"11.3000","3.7671","0.0928"
"11.4000","3.8004","0.0930"
"11.5000","3.8341","0.0932"
"11.6000","3.8672","0.0935"
"11.7000","3.9003","0.0936"
"11.8000","3.9337","0.0938"
"11.9000","3.9675","0.0940"
"12.0000","4.0008","0.0942"
"12.1000","4.0337","0.0943"
"12.2000","4.0671","0.0945"
"12.3000","4.1009","0.0947"
"12.4000","4.1340","0.0948"
"12.5000","4.1668","0.0950"
"12.6000","4.2001","0.0951"
"12.7000","4.2341","0.0953"
"12.8000","4.2675","0.0954"
"12.9000","4.3004","0.0956"
"13.0000","4.3339","0.0957"
"13.1000","4.3677","0.0959"
"13.2000","4.4007","0.0960"
"13.3000","4.4336","0.0962"
"13.4000","4.4669","0.0963"
"13.5000","4.5008","0.0965"
"13.6000","4.5341","0.0966"
"13.7000","4.5671","0.0968"
"13.8000","4.6004","0.0969"
"13.9000","4.6343","0.0970"
"14.0000","4.6675","0.0971"
"14.1000","4.7004","0.0973"
"14.2000","4.7337","0.0974"
"14.3000","4.7673","0.0976"
"14.4000","4.8007","0.0977"
"14.5000","4.8337","0.0978"
"14.6000","4.8671","0.0979"
"14.7000","4.9009","0.0981"
"14.8000","4.9340","0.0982"
"14.9000","4.9669","0.0983"
"15.0000","5.0004","0.0984"
"15.1000","5.0341","0.0985"
"15.2000","5.0673","0.0987"
"15.3000","5.1004","0.0988"
"15.4000","5.1337","0.0989"
"15.5000","5.1676","0.0990"
"15.6000","5.2008","0.0991"
"15.7000","5.2337","0.0993"
"15.8000","5.2671","0.0993"
"15.9000","5.3008","0.0995"
"16.0000","5.3341","0.0996"
"16.1000","5.3669","0.0997"
"16.2000","5.4003","0.0997"
"16.3000","5.4343","0.0999"
"16.4000","5.4675","0.1000"
"16.5000","5.5004","0.1001"
"16.6000","5.5339","0.1002"
"16.7000","5.5676","0.1004"
"16.8000","5.6007","0.1005"
"16.9000","5.6337","0.1005"
"17.0000","5.6671","0.1006"
"17.1000","5.7007","0.1007"
"17.2000","5.7341","0.1008"
"17.3000","5.7671","0.1010"
"17.4000","5.8003","0.1010"
"17.5000","5.8341","0.1012"
"17.6000","5.8675","0.1012"
"17.7000","5.9003","0.1013"
"17.8000","5.9339","0.1014"
"17.9000","5.9676","0.1016"
"18.0000","6.0008","0.1016"
"18.1000","6.0336","0.1017"
"18.2000","6.0671","0.1018"
"18.3000","6.1009","0.1019"
"18.4000","6.1340","0.1020"
"18.5000","6.1672","0.1021"
"18.6000","6.2004","0.1022"
"18.7000","6.2341","0.1023"
"18.8000","6.2675","0.1023"
"18.9000","6.3004","0.1024"
"19.0000","6.3337","0.1025"
"19.1000","6.3675","0.1026"
"19.2000","6.4008","0.1027"
"19.3000","6.4336","0.1028"
"19.4000","6.4671","0.1029"
"19.5000","6.5009","0.1030"
"19.6000","6.5340","0.1031"
"19.7000","6.5671","0.1031"
"19.8000","6.6003","0.1032"
"19.9000","6.6341","0.1033"
"20.0000","6.6675","0.1034"
"20.1000","6.7003","0.1034"
"20.2000","6.7336","0.1035"
"20.3000","6.7675","0.1036"
"20.4000","6.8007","0.1037"
"20.5000","6.8339","0.1038"
"20.6000","6.8671","0.1039"
"20.7000","6.9009","0.1040"
"20.8000","6.9340","0.1041"
"20.9000","6.9669","0.1041"
"21.0000","7.0004","0.1041"
"21.1000","7.0341","0.1043"
"21.2000","7.0673","0.1043"
"21.3000","7.1004","0.1044"
"21.4000","7.1337","0.1045"
"21.5000","7.1675","0.1046"
"21.6000","7.2007","0.1047"
"21.7000","7.2337","0.1047"
"21.8000","7.2671","0.1048"
"21.9000","7.3008","0.1049"
"22.0000","7.3341","0.1050"
"22.1000","7.3669","0.1050"
"22.2000","7.4003","0.1051"
"22.3000","7.4341","0.1052"
"22.4000","7.4673","0.1052"
"22.5000","7.5004","0.1053"
"22.6000","7.5337","0.1053"
"22.7000","7.5676","0.1055"
"22.8000","7.6007","0.1055"
"22.9000","7.6337","0.1056"
"23.0000","7.6671","0.1056"
"23.1000","7.7008","0.1057"
"23.2000","7.7340","0.1058"
"23.3000","7.7671","0.1058"
"23.4000","7.8004","0.1059"
"23.5000","7.8341","0.1060"
"23.6000","7.8675","0.1060"
"23.7000","7.9004","0.1061"
"23.8000","7.9337","0.1061"
"23.9000","7.9676","0.1062"
"24.0000","8.0007","0.1063"
"24.1000","8.0336","0.1063"
"24.2000","8.0671","0.1063"
"24.3000","8.1008","0.1064"
"24.4000","8.1340","0.1065"
"24.5000","8.1671","0.1065"
"24.6000","8.2004","0.1064"
"24.7000","8.2341","0.1065"
"24.8000","8.2673","0.1065"
"24.9000","8.3004","0.1065"
"25.0000","8.3336","0.1066"
"25.1000","8.3676","0.1067"
"25.2000","8.4008","0.1067"
"25.3000","8.4337","0.1067"
"25.4000","8.4671","0.1067"
"25.5000","8.5009","0.1068"
"25.6000","8.5339","0.1068"
"25.7000","8.5669","0.1068"
"25.8000","8.6004","0.1069"
"25.9000","8.6341","0.1069"
"26.0000","8.6673","0.1070"
"26.1000","8.7003","0.1071"
"26.2000","8.7336","0.1071"
"26.3000","8.7675","0.1072"
"26.4000","8.8007","0.1072"
"26.5000","8.8337","0.1073"
"26.6000","8.8671","0.1073"
"26.7000","8.9009","0.1074"
"26.8000","8.9341","0.1074"
"26.9000","8.9671","0.1073"
"27.0000","9.0004","0.1073"
"27.1000","9.0343","0.1074"
"27.2000","9.0673","0.1074"
"27.3000","9.1004","0.1074"
"27.4000","9.1337","0.1074"
"27.5000","9.1675","0.1075"
"27.6000","9.2007","0.1075"
"27.7000","9.2336","0.1075"
"27.8000","9.2671","0.1076"
"27.9000","9.3007","0.1077"
"28.0000","9.3340","0.1077"
"28.1000","9.3672","0.1078"
"28.2000","9.4004","0.1078"
"28.3000","9.4341","0.1079"
"28.4000","9.4675","0.1080"
"28.5000","9.5004","0.1080"
"28.6000","9.5339","0.1081"
"28.7000","9.5675","0.1081"
"28.8000","9.6008","0.1082"
"28.9000","9.6337","0.1082"
"29.0000","9.6672","0.1083"
"29.1000","9.7009","0.1084"
"29.2000","9.7341","0.1085"
"29.3000","9.7669","0.1085"
"29.4000","9.8004","0.1085"
"29.5000","9.8339","0.1086"
"29.6000","9.8673","0.1087"
"29.7000","9.9004","0.1087"
"29.8000","9.9337","0.1087"
"29.9000","9.9676","0.1088"
"30.0000","10.0008","0.1089"
"30.1000","10.0337","0.1089"
"30.2000","10.0671","0.1090"
"30.3000","10.1008","0.1091"
"30.4000","10.1340","0.1091"
"30.5000","10.1671","0.1091"
"30.6000","10.2004","0.1092"
"30.7000","10.2343","0.1093"
"30.8000","10.2673","0.1093"
"30.9000","10.3003","0.1093"
"31.0000","10.3336","0.1094"
"31.1000","10.3675","0.1094"
"31.2000","10.4008","0.1095"
"31.3000","10.4337","0.1096"
"31.4000","10.4669","0.1096"
"31.5000","10.5009","0.1097"
"31.6000","10.5341","0.1097"
"31.7000","10.5671","0.1098"
"31.8000","10.6004","0.1098"
"31.9000","10.6341","0.1099"
"32.0000","10.6673","0.1100"
"32.1000","10.7004","0.1099"
"32.2000","10.7339","0.1100"
"32.3000","10.7676","0.1100"
"32.4000","10.8007","0.1101"
"32.5000","10.8336","0.1101"
"32.6000","10.8671","0.1102"
"32.7000","10.9009","0.1103"
"32.8000","10.9339","0.1103"
"32.9000","10.9671","0.1104"
"33.0000","11.0004","0.1104"
"33.1000","11.0343","0.1105"
"33.2000","11.0673","0.1106"
"33.3000","11.1004","0.1106"
"33.4000","11.1337","0.1106"
"33.5000","11.1676","0.1107"
"33.6000","11.2007","0.1108"
"33.7000","11.2337","0.1108"
"33.8000","11.2671","0.1108"
"33.9000","11.3008","0.1109"
"34.0000","11.3340","0.1110"
"34.1000","11.3669","0.1110"
"34.2000","11.4003","0.1110"
"34.3000","11.4341","0.1111"
"34.4000","11.4673","0.1111"
"34.5000","11.5004","0.1111"
"34.6000","11.5337","0.1112"
"34.7000","11.5676","0.1113"
"34.8000","11.6008","0.1112"
"34.9000","11.6337","0.1113"
"35.0000","11.6669","0.1113"
"35.1000","11.7009","0.1114"
"35.2000","11.7340","0.1114"
"35.3000","11.7669","0.1115"
"35.4000","11.8004","0.1115"
"35.5000","11.8343","0.1116"
"35.6000","11.8675","0.1116"
"35.7000","11.9003","0.1117"
"35.8000","11.9337","0.1117"
"35.9000","11.9675","0.1118"
"36.0000","12.0007","0.1118"
"36.1000","12.0337","0.1118"
"36.2000","12.0669","0.1118"
"36.3000","12.1009","0.1119"
"36.4000","12.1341","0.1120"
"36.5000","12.1671","0.1120"
"36.6000","12.2004","0.1120"
"36.7000","12.2341","0.1121"
"36.8000","12.2675","0.1122"
"36.9000","12.3003","0.1122"
"37.0000","12.3337","0.1122"
"37.1000","12.3676","0.1123"
"37.2000","12.4007","0.1124"
"37.3000","12.4337","0.1124"
"37.4000","12.4671","0.1124"
"37.5000","12.5008","0.1125"
"37.6000","12.5340","0.1126"
"37.7000","12.5671","0.1126"
"37.8000","12.6003","0.1127"
"37.9000","12.6343","0.1128"
"38.0000","12.6675","0.1128"
"38.1000","12.7004","0.1128"
"38.2000","12.7336","0.1129"
"38.3000","12.7675","0.1129"
"38.4000","12.8007","0.1130"
"38.5000","12.8337","0.1130"
"38.6000","12.8671","0.1130"
"38.7000","12.9008","0.1131"
"38.8000","12.9341","0.1132"
"38.9000","12.9669","0.1132"
"39.0000","13.0003","0.1133"
"39.1000","13.0341","0.1134"
"39.2000","13.0673","0.1134"
"39.3000","13.1004","0.1134"
"39.4000","13.1336","0.1135"
"39.5000","13.1676","0.1135"
"39.6000","13.2008","0.1136"
"39.7000","13.2337","0.1136"
"39.8000","13.2671","0.1136"
"39.9000","13.3009","0.1137"
"40.0000","13.3341","0.1138"
"40.1000","13.3669","0.1138"
"40.2000","13.4004","0.1138"
"40.3000","13.4343","0.1139"
"40.4000","13.4673","0.1139"
"40.5000","13.5003","0.1140"
"40.6000","13.5336","0.1140"
"40.7000","13.5675","0.1141"
"40.8000","13.6008","0.1142"
"40.9000","13.6337","0.1142"
"41.0000","13.6671","0.1142"
"41.1000","13.7009","0.1142"
"41.2000","13.7341","0.1143"
"41.3000","13.7671","0.1143"
"41.4000","13.8004","0.1143"
"41.5000","13.8341","0.1144"
"41.6000","13.8673","0.1144"
"41.7000","13.9004","0.1145"
"41.8000","13.9337","0.1144"
"41.9000","13.9676","0.1146"
"42.0000","14.0007","0.1146"
"42.1000","14.0336","0.1147"
"42.2000","14.0669","0.1147"
"42.3000","14.1008","0.1148"
"42.4000","14.1341","0.1148"
"42.5000","14.1672","0.1148"
"42.6000","14.2004","0.1149"
"42.7000","14.2343","0.1150"
"42.8000","14.2675","0.1150"
"42.9000","14.3004","0.1151"
"43.0000","14.3336","0.1151"
"43.1000","14.3676","0.1152"
"43.2000","14.4008","0.1152"
"43.3000","14.4336","0.1152"
"43.4000","14.4671","0.1153"
"43.5000","14.5009","0.1154"
"43.6000","14.5340","0.1154"
"43.7000","14.5671","0.1154"
"43.8000","14.6004","0.1155"
"43.9000","14.6341","0.1155"
"44.0000","14.6673","0.1156"
"44.1000","14.7004","0.1156"
"44.2000","14.7337","0.1156"
"44.3000","14.7676","0.1157"
"44.4000","14.8008","0.1158"
"44.5000","14.8337","0.1158"
"44.6000","14.8671","0.1158"
"44.7000","14.9007","0.1158"
"44.8000","14.9340","0.1159"
"44.9000","14.9671","0.1159"
"45.0000","15.0004","0.1159"
"45.1000","15.0341","0.1160"
"45.2000","15.0673","0.1160"
"45.3000","15.1003","0.1160"
"45.4000","15.1336","0.1161"
"45.5000","15.1675","0.1161"
"45.6000","15.2007","0.1162"
"45.7000","15.2337","0.1162"
"45.8000","15.2671","0.1163"
"45.9000","15.3009","0.1163"
"46.0000","15.3343","0.1164"
"46.1000","15.3671","0.1164"
"46.2000","15.4004","0.1165"
"46.3000","15.4341","0.1166"
"46.4000","15.4673","0.1166"
"46.5000","15.5001","0.1166"
"46.6000","15.5336","0.1167"
"46.7000","15.5675","0.1167"
"46.8000","15.6007","0.1168"
"46.9000","15.6336","0.1168"
"47.0000","15.6671","0.1168"
"47.1000","15.7008","0.1169"
"47.2000","15.7341","0.1170"
"47.3000","15.7671","0.1170"
"47.4000","15.8004","0.1170"
"47.5000","15.8341","0.1171"
"47.6000","15.8675","0.1172"
"47.7000","15.9004","0.1172"
"47.8000","15.9337","0.1172"
"47.9000","15.9675","0.1172"
"48.0000","16.0007","0.1173"
"48.1000","16.0336","0.1174"
"48.2000","16.0671","0.1173"
"48.3000","16.1009","0.1175"
"48.4000","16.1340","0.1175"
"48.5000","16.1669","0.1175"
"48.6000","16.2003","0.1175"
"48.7000","16.2341","0.1176"
"48.8000","16.2673","0.1176"
"48.9000","16.3004","0.1176"
"49.0000","16.3337","0.1177"
"49.1000","16.3676","0.1178"
"49.2000","16.4008","0.1178"
"49.3000","16.4337","0.1179"
"49.4000","16.4671","0.1179"
"49.5000","16.5008","0.1180"
"49.6000","16.5340","0.1180"
"49.7000","16.5669","0.1180"
"49.8000","16.6004","0.1181"
"49.9000","16.6343","0.1182"
"50.0000","16.6673","0.1182"
"50.1000","16.7004","0.1182"
"50.2000","16.7336","0.1183"
"50.3000","16.7673","0.1184"
"50.4000","16.8008","0.1184"
"50.5000","16.8337","0.1184"
"50.6000","16.8671","0.1184"
"50.7000","16.9009","0.1185"
"50.8000","16.9341","0.1185"
"50.9000","16.9671","0.1185"
"51.0000","17.0004","0.1185"
"51.1000","17.0341","0.1185"
"51.2000","17.0673","0.1186"
"51.3000","17.1003","0.1186"
"51.4000","17.1337","0.1186"
"51.5000","17.1676","0.1186"
"51.6000","17.2007","0.1187"
"51.7000","17.2336","0.1187"
"51.8000","17.2669","0.1187"
"51.9000","17.3009","0.1188"
"52.0000","17.3341","0.1189"
"52.1000","17.3671","0.1189"
"52.2000","17.4004","0.1189"
"52.3000","17.4343","0.1190"
"52.4000","17.4676","0.1190"
"52.5000","17.5004","0.1190"
"52.6000","17.5337","0.1191"
"52.7000","17.5675","0.1192"
"52.8000","17.6007","0.1192"
"52.9000","17.6336","0.1192"
"53.0000","17.6671","0.1192"
"53.1000","17.7009","0.1193"
"53.2000","17.7340","0.1193"
"53.3000","17.7671","0.1193"
"53.4000","17.8004","0.1194"
"53.5000","17.8343","0.1195"
"53.6000","17.8675","0.1194"
"53.7000","17.9003","0.1195"
"53.8000","17.9337","0.1195"
"53.9000","17.9676","0.1196"
"54.0000","18.0008","0.1196"
"54.1000","18.0337","0.1197"
"54.2000","18.0671","0.1198"
"54.3000","18.1008","0.1198"
"54.4000","18.1340","0.1198"
"54.5000","18.1671","0.1198"
"54.6000","18.2005","0.1199"
"54.7000","18.2343","0.1199"
"54.8000","18.2673","0.1199"
"54.9000","18.3003","0.1200"
"55.0000","18.3337","0.1200"
"55.1000","18.3675","0.1201"
"55.2000","18.4007","0.1201"
"55.3000","18.4337","0.1202"
"55.4000","18.4671","0.1202"
"55.5000","18.5009","0.1203"
"55.6000","18.5343","0.1203"
"55.7000","18.5672","0.1203"
"55.8000","18.6004","0.1202"
"55.9000","18.6341","0.1203"
"56.0000","18.6673","0.1204"
"56.1000","18.7003","0.1204"
"56.2000","18.7337","0.1204"
"56.3000","18.7676","0.1205"
"56.4000","18.8007","0.1206"
"56.5000","18.8336","0.1205"
"56.6000","18.8671","0.1206"
"56.7000","18.9008","0.1206"
"56.8000","18.9339","0.1206"
"56.9000","18.9671","0.1206"
"57.0000","19.0005","0.1207"
"57.1000","19.0343","0.1207"
"57.2000","19.0675","0.1207"
"57.3000","19.1003","0.1207"
"57.4000","19.1337","0.1207"
"57.5000","19.1675","0.1208"
"57.6000","19.2008","0.1208"
"57.7000","19.2337","0.1208"
"57.8000","19.2671","0.1209"
"57.9000","19.3008","0.1210"
"58.0000","19.3340","0.1210"
"58.1000","19.3669","0.1210"
"58.2000","19.4003","0.1211"
"58.3000","19.4341","0.1211"
"58.4000","19.4673","0.1212"
"58.5000","19.5004","0.1212"
"58.6000","19.5337","0.1212"
"58.7000","19.5676","0.1213"
"58.8000","19.6008","0.1214"
"58.9000","19.6337","0.1214"
"59.0000","19.6668","0.1214"
"59.1000","19.7008","0.1214"
"59.2000","19.7340","0.1215"
"59.3000","19.7671","0.1215"
"59.4000","19.8004","0.1215"
"59.5000","19.8343","0.1216"
"59.6000","19.8673","0.1217"
"59.7000","19.9003","0.1217"
"59.8000","19.9337","0.1217"
"59.9000","19.9675","0.1218"
"60.0000","20.0007","0.1219"
"60.1000","20.0337","0.1218"
"60.2000","20.0671","0.1218"
"60.3000","20.1009","0.1219"
"60.4000","20.1341","0.1219"
"60.5000","20.1671","0.1219"
"60.6000","20.2004","0.1220"
"60.7000","20.2341","0.1220"
"60.8000","20.2673","0.1220"
"60.9000","20.3004","0.1220"
"61.0000","20.3337","0.1221"
"61.1000","20.3675","0.1222"
"61.2000","20.4007","0.1222"
"61.3000","20.4336","0.1222"
"61.4000","20.4671","0.1223"
"61.5000","20.5008","0.1223"
"61.6000","20.5340","0.1223"
"61.7000","20.5669","0.1223"
"61.8000","20.6004","0.1223"
"61.9000","20.6343","0.1224"
"62.0000","20.6675","0.1225"
"62.1000","20.7003","0.1224"
"62.2000","20.7337","0.1225"
"62.3000","20.7675","0.1225"
"62.4000","20.8007","0.1225"
"62.5000","20.8337","0.1225"
"62.6000","20.8671","0.1225"
"62.7000","20.9009","0.1226"
"62.8000","20.9340","0.1226"
"62.9000","20.9669","0.1226"
"63.0000","21.0004","0.1227"
"63.1000","21.0343","0.1227"
"63.2000","21.0673","0.1227"
"63.3000","21.1004","0.1223"
"63.4000","21.1337","0.1223"
"63.5000","21.1676","0.1223"
"63.6000","21.2007","0.1224"
"63.7000","21.2336","0.1223"
"63.8000","21.2669","0.1224"
"63.9000","21.3008","0.1224"
"64.0000","21.3340","0.1225"
"64.1000","21.3671","0.1225"
"64.2000","21.4005","0.1225"
"64.3000","21.4343","0.1225"
"64.4000","21.4675","0.1227"
"64.5000","21.5004","0.1227"
"64.6000","21.5336","0.1227"
"64.7000","21.5675","0.1228"
"64.8000","21.6007","0.1228"
"64.9000","21.6337","0.1229"
"65.0000","21.6671","0.1229"
"65.1000","21.7009","0.1228"
"65.2000","21.7341","0.1229"
"65.3000","21.7671","0.1228"
"65.4000","21.8003","0.1227"
"65.5000","21.8341","0.1228"
"65.6000","21.8673","0.1228"
"65.7000","21.9004","0.1228"
"65.8000","21.9337","0.1228"
"65.9000","21.9676","0.1229"
"66.0000","22.0008","0.1229"
"66.1000","22.0337","0.1229"
"66.2000","22.0671","0.1230"
"66.3000","22.1008","0.1231"
"66.4000","22.1341","0.1231"
"66.5000","22.1669","0.1231"
"66.6000","22.2004","0.1231"
"66.7000","22.2343","0.1232"
"66.8000","22.2675","0.1233"
"66.9000","22.3003","0.1233"
"67.0000","22.3337","0.1233"
"67.1000","22.3675","0.1234"
"67.2000","22.4007","0.1234"
"67.3000","22.4336","0.1235"
"67.4000","22.4671","0.1235"
"67.5000","22.5009","0.1236"
"67.6000","22.5341","0.1236"
"67.7000","22.5669","0.1237"
"67.8000","22.6004","0.1237"
"67.9000","22.6341","0.1238"
"68.0000","22.6675","0.1238"
"68.1000","22.7004","0.1239"
"68.2000","22.7337","0.1239"
"68.3000","22.7675","0.1240"
"68.4000","22.8007","0.1240"
"68.5000","22.8336","0.1240"
"68.6000","22.8671","0.1240"
"68.7000","22.9009","0.1240"
"68.8000","22.9340","0.1240"
"68.9000","22.9671","0.1240"
"69.0000","23.0004","0.1240"
"69.1000","23.0343","0.1241"
"69.2000","23.0675","0.1240"
"69.3000","23.1004","0.1241"
"69.4000","23.1337","0.1241"
"69.5000","23.1675","0.1242"
"69.6000","23.2007","0.1243"
"69.7000","23.2337","0.1243"
"69.8000","23.2671","0.1243"
"69.9000","23.3008","0.1244"
"70.0000","23.3341","0.1244"
"70.1000","23.3671","0.1244"
"70.2000","23.4005","0.1245"
"70.3000","23.4341","0.1245"
"70.4000","23.4673","0.1246"
"70.5000","23.5004","0.1246"
"70.6000","23.5337","0.1246"
"70.7000","23.5676","0.1247"
"70.8000","23.6007","0.1248"
"70.9000","23.6336","0.1248"
"71.0000","23.6669","0.1248"
"71.1000","23.7007","0.1249"
"71.2000","23.7341","0.1249"
"71.3000","23.7671","0.1250"
"71.4000","23.8004","0.1250"
"71.5000","23.8343","0.1250"
"71.6000","23.8675","0.1250"
"71.7000","23.9004","0.1250"
"71.8000","23.9336","0.1250"
"71.9000","23.9676","0.1251"
"72.0000","24.0007","0.1252"
"72.1000","24.0336","0.1252"
"72.2000","24.0671","0.1252"
"72.3000","24.1009","0.1252"
"72.4000","24.1340","0.1253"
"72.5000","24.1669","0.1253"
"72.6000","24.2004","0.1253"
"72.7000","24.2343","0.1254"
"72.8000","24.2673","0.1254"
"72.9000","24.3004","0.1254"
"73.0000","24.3336","0.1254"
"73.1000","24.3676","0.1254"
"73.2000","24.4007","0.1255"
"73.3000","24.4336","0.1255"
"73.4000","24.4669","0.1255"
"73.5000","24.5007","0.1255"
"73.6000","24.5340","0.1255"
"73.7000","24.5672","0.1255"
"73.8000","24.6004","0.1255"
"73.9000","24.6343","0.1255"
"74.0000","24.6673","0.1256"
"74.1000","24.7004","0.1255"
"74.2000","24.7337","0.1255"
"74.3000","24.7673","0.1256"
"74.4000","24.8007","0.1257"
"74.5000","24.8337","0.1257"
"74.6000","24.8671","0.1257"
"74.7000","24.9008","0.1257"
"74.8000","24.9341","0.1257"
"74.9000","24.9671","0.1258"
"75.0000","25.0004","0.1258"
"75.1000","25.0343","0.1258"
"75.2000","25.0673","0.1258"
"75.3000","25.1004","0.1258"
"75.4000","25.1337","0.1259"
"75.5000","25.1676","0.1260"
"75.6000","25.2007","0.1259"
"75.7000","25.2336","0.1259"
"75.8000","25.2671","0.1260"
"75.9000","25.3008","0.1260"
"76.0000","25.3340","0.1260"
"76.1000","25.3671","0.1260"
"76.2000","25.4003","0.1260"
"76.3000","25.4341","0.1261"
"76.4000","25.4675","0.1261"
"76.5000","25.5004","0.1261"
"76.6000","25.5339","0.1261"
"76.7000","25.5675","0.1262"
"76.8000","25.6007","0.1262"
"76.9000","25.6336","0.1262"
"77.0000","25.6671","0.1262"
"77.1000","25.7009","0.1262"
"77.2000","25.7340","0.1263"
"77.3000","25.7671","0.1263"
"77.4000","25.8003","0.1263"
"77.5000","25.8343","0.1264"
"77.6000","25.8673","0.1264"
"77.7000","25.9005","0.1264"
"77.8000","25.9337","0.1265"
"77.9000","25.9677","0.1265"
"78.0000","26.0008","0.1265"
"78.1000","26.0337","0.1265"
"78.2000","26.0671","0.1266"
"78.3000","26.1008","0.1266"
"78.4000","26.1340","0.1267"
"78.5000","26.1669","0.1266"
"78.6000","26.2004","0.1266"
"78.7000","26.2343","0.1267"
"78.8000","26.2673","0.1268"
"78.9000","26.3003","0.1268"
"79.0000","26.3336","0.1268"
"79.1000","26.3675","0.1268"
"79.2000","26.4007","0.1269"
"79.3000","26.4337","0.1269"
"79.4000","26.4671","0.1269"
"79.5000","26.5009","0.1270"
"79.6000","26.5341","0.1270"
"79.7000","26.5671","0.1270"
"79.8000","26.6004","0.1270"
"79.9000","26.6341","0.1270"
"80.0000","26.6675","0.1270"
"80.1000","26.7005","0.1270"
"80.2000","26.7339","0.1270"
"80.3000","26.7675","0.1271"
"80.4000","26.8007","0.1271"
"80.5000","26.8336","0.1271"
"80.6000","26.8671","0.1271"
"80.7000","26.9007","0.1271"
"80.8000","26.9340","0.1272"
"80.9000","26.9669","0.1272"
"81.0000","27.0004","0.1272"
"81.1000","27.0343","0.1272"
"81.2000","27.0676","0.1272"
"81.3000","27.1004","0.1272"
"81.4000","27.1339","0.1272"
"81.5000","27.1675","0.1272"
"81.6000","27.2007","0.1273"
"81.7000","27.2337","0.1273"
"81.8000","27.2671","0.1272"
"81.9000","27.3009","0.1272"
"82.0000","27.3340","0.1272"
"82.1000","27.3671","0.1271"
"82.2000","27.4003","0.1272"
"82.3000","27.4341","0.1272"
"82.4000","27.4673","0.1272"
"82.5000","27.5004","0.1272"
"82.6000","27.5336","0.1271"
"82.7000","27.5676","0.1272"
"82.8000","27.6008","0.1272"
"82.9000","27.6337","0.1272"
"83.0000","27.6671","0.1271"
"83.1000","27.7008","0.1272"
"83.2000","27.7341","0.1272"
"83.3000","27.7671","0.1271"
"83.4000","27.8004","0.1271"
"83.5000","27.8343","0.1272"
"83.6000","27.8673","0.1272"
"83.7000","27.9003","0.1272"
"83.8000","27.9337","0.1272"
"83.9000","27.9673","0.1272"
"84.0000","28.0007","0.1272"
"84.1000","28.0336","0.1272"
"84.2000","28.0671","0.1272"
"84.3000","28.1009","0.1273"
"84.4000","28.1341","0.1273"
"84.5000","28.1671","0.1273"
"84.6000","28.2004","0.1272"
"84.7000","28.2343","0.1273"
"84.8000","28.2673","0.1273"
"84.9000","28.3004","0.1272"
"85.0000","28.3337","0.1273"
"85.1000","28.3676","0.1273"
"85.2000","28.4007","0.1273"
"85.3000","28.4336","0.1273"
"85.4000","28.4669","0.1273"
"85.5000","28.5008","0.1273"
"85.6000","28.5340","0.1273"
"85.7000","28.5671","0.1273"
"85.8000","28.6003","0.1273"
"85.9000","28.6343","0.1274"
"86.0000","28.6675","0.1274"
"86.1000","28.7004","0.1273"
"86.2000","28.7336","0.1273"
"86.3000","28.7675","0.1274"
"86.4000","28.8007","0.1274"
"86.5000","28.8336","0.1273"
"86.6000","28.8671","0.1273"
"86.7000","28.9008","0.1274"
"86.8000","28.9340","0.1274"
"86.9000","28.9669","0.1274"
"87.0000","29.0003","0.1273"
"87.1000","29.0341","0.1274"
"87.2000","29.0673","0.1274"
"87.3000","29.1003","0.1274"
"87.4000","29.1337","0.1274"
"87.5000","29.1676","0.1274"
"87.6000","29.2009","0.1274"
"87.7000","29.2336","0.1274"
"87.8000","29.2671","0.1273"
"87.9000","29.3008","0.1273"
"88.0000","29.3340","0.1273"
"88.1000","29.3671","0.1273"
"88.2000","29.4004","0.1273"
"88.3000","29.4341","0.1272"
"88.4000","29.4673","0.1271"
"88.5000","29.5004","0.1271"
"88.6000","29.5337","0.1271"
"88.7000","29.5673","0.1271"
"88.8000","29.6007","0.1271"
"88.9000","29.6336","0.1270"
"89.0000","29.6671","0.1269"
"89.1000","29.7009","0.1269"
"89.2000","29.7343","0.1268"
"89.3000","29.7671","0.1268"
"89.4000","29.8004","0.1268"
"89.5000","29.8343","0.1268"
"89.6000","29.8675","0.1267"
"89.7000","29.9004","0.1267"
"89.8000","29.9337","0.1266"
"89.9000","29.9676","0.1266"
"90.0000","30.0007","0.1266"
"90.1000","30.0336","0.1265"
"90.2000","30.0671","0.1265"
"90.3000","30.1008","0.1265"
"90.4000","30.1340","0.1265"
"90.5000","30.1671","0.1264"
"90.6000","30.2004","0.1264"
"90.7000","30.2344","0.1263"
"90.8000","30.2675","0.1263"
"90.9000","30.3004","0.1263"
"91.0000","30.3337","0.1262"
"91.1000","30.3676","0.1262"
"91.2000","30.4008","0.1261"
"91.3000","30.4336","0.1261"
"91.4000","30.4671","0.1260"
"91.5000","30.5009","0.1260"
"91.6000","30.5340","0.1259"
"91.7000","30.5669","0.1259"
"91.8000","30.6004","0.1258"
"91.9000","30.6341","0.1258"
"92.0000","30.6675","0.1257"
"92.1000","30.7005","0.1257"
"92.2000","30.7337","0.1256"
"92.3000","30.7676","0.1256"
"92.4000","30.8008","0.1255"
"92.5000","30.8337","0.1254"
"92.6000","30.8671","0.1253"
"92.7000","30.9008","0.1253"
"92.8000","30.9341","0.1252"
"92.9000","30.9671","0.1251"
"93.0000","31.0004","0.1250"
"93.1000","31.0341","0.1250"
"93.2000","31.0673","0.1249"
"93.3000","31.1003","0.1248"
"93.4000","31.1337","0.1246"
"93.5000","31.1675","0.1245"
"93.6000","31.2007","0.1244"
"93.7000","31.2339","0.1243"
"93.8000","31.2671","0.1241"
"93.9000","31.3009","0.1240"
"94.0000","31.3341","0.1238"
"94.1000","31.3671","0.1237"
"94.2000","31.4004","0.1235"
"94.3000","31.4341","0.1233"
"94.4000","31.4675","0.1231"
"94.5000","31.5004","0.1229"
"94.6000","31.5337","0.1227"
"94.7000","31.5676","0.1225"
"94.8000","31.6007","0.1223"
"94.9000","31.6336","0.1221"
"95.0000","31.6669","0.1218"
"95.1000","31.7008","0.1217"
"95.2000","31.7341","0.1215"
"95.3000","31.7671","0.1212"
"95.4000","31.8004","0.1211"
"95.5000","31.8341","0.1209"
"95.6000","31.8675","0.1207"
"95.7000","31.9004","0.1206"
"95.8000","31.9336","0.1205"
"95.9000","31.9675","0.1204"
"96.0000","32.0007","0.1203"
"96.1000","32.0337","0.1202"
"96.2000","32.0671","0.1200"
"96.3000","32.1009","0.1200"
"96.4000","32.1340","0.1199"
"96.5000","32.1671","0.1198"
"96.6000","32.2004","0.1197"
"96.7000","32.2341","0.1196"
"96.8000","32.2675","0.1195"
"96.9000","32.3004","0.1194"
"97.0000","32.3337","0.1193"
"97.1000","32.3676","0.1192"
"97.2000","32.4009","0.1191"
"97.3000","32.4339","0.1190"
"97.4000","32.4669","0.1189"
"97.5000","32.5007","0.1188"
"97.6000","32.5340","0.1187"
"97.7000","32.5669","0.1186"
"97.8000","32.6003","0.1185"
"97.9000","32.6341","0.1185"
"98.0000","32.6673","0.1184"
"98.1000","32.7004","0.1182"
"98.2000","32.7337","0.1181"
"98.3000","32.7675","0.1180"
"98.4000","32.8008","0.1179"
"98.5000","32.8337","0.1178"
"98.6000","32.8671","0.1176"
"98.7000","32.9009","0.1175"
"98.8000","32.9341","0.1173"
"98.9000","32.9671","0.1171"
"99.0000","33.0003","0.1170"
"99.1000","33.0343","0.1168"
"99.2000","33.0673","0.1167"
"99.3000","33.1003","0.1166"
"99.4000","33.1339","0.1164"
"99.5000","33.1676","0.1163"
"99.6000","33.2007","0.1162"
"99.7000","33.2336","0.1161"
"99.8000","33.2669","0.1160"
"99.9000","33.3008","0.1159"
"100.0000","33.3340","0.1158"
"100.1000","33.3671","0.1157"
"100.2000","33.4004","0.1157"
"100.3000","33.4343","0.1156"
"100.4000","33.4675","0.1156"
"100.5000","33.5004","0.1155"
"100.6000","33.5337","0.1155"
"100.7000","33.5675","0.1155"
"100.8000","33.6007","0.1155"
"100.9000","33.6337","0.1154"
"101.0000","33.6671","0.1153"
"101.1000","33.7009","0.1154"
"101.2000","33.7340","0.1153"
"101.3000","33.7671","0.1152"
"101.4000","33.8004","0.1152"
"101.5000","33.8341","0.1151"
"101.6000","33.8675","0.1151"
"101.7000","33.9004","0.1150"
"101.8000","33.9336","0.1150"
"101.9000","33.9676","0.1150"
"102.0000","34.0008","0.1149"
"102.1000","34.0337","0.1149"
"102.2000","34.0671","0.1148"
"102.3000","34.1008","0.1149"
"102.4000","34.1340","0.1148"
"102.5000","34.1669","0.1148"
"102.6000","34.2004","0.1148"
"102.7000","34.2341","0.1148"
"102.8000","34.2675","0.1149"
"102.9000","34.3003","0.1149"
"103.0000","34.3337","0.1149"
"103.1000","34.3675","0.1149"
"103.2000","34.4007","0.1149"
"103.3000","34.4337","0.1149"
"103.4000","34.4671","0.1149"
"103.5000","34.5009","0.1150"
"103.6000","34.5341","0.1150"
"103.7000","34.5669","0.1150"
"103.8000","34.6004","0.1150"
"103.9000","34.6343","0.1151"
"104.0000","34.6673","0.1151"
"104.1000","34.7004","0.1151"
"104.2000","34.7337","0.1152"
"104.3000","34.7676","0.1152"
"104.4000","34.8008","0.1152"
"104.5000","34.8336","0.1153"
"104.6000","34.8671","0.1152"
"104.7000","34.9008","0.1153"
"104.8000","34.9340","0.1153"
"104.9000","34.9669","0.1153"
"105.0000","35.0003","0.1153"
"105.1000","35.0341","0.1154"
"105.2000","35.0673","0.1154"
"105.3000","35.1004","0.1154"
"105.4000","35.1337","0.1154"
"105.5000","35.1676","0.1155"
"105.6000","35.2008","0.1155"
"105.7000","35.2337","0.1155"
"105.8000","35.2671","0.1155"
"105.9000","35.3009","0.1156"
"106.0000","35.3341","0.1156"
"106.1000","35.3669","0.1157"
"106.2000","35.4004","0.1157"
"106.3000","35.4340","0.1157"
"106.4000","35.4673","0.1158"
"106.5000","35.5004","0.1158"
"106.6000","35.5337","0.1159"
"106.7000","35.5676","0.1159"
"106.8000","35.6008","0.1160"
"106.9000","35.6337","0.1160"
"107.0000","35.6671","0.1160"
"107.1000","35.7008","0.1161"
"107.2000","35.7340","0.1161"
"107.3000","35.7669","0.1162"
"107.4000","35.8005","0.1163"
"107.5000","35.8343","0.1164"
"107.6000","35.8673","0.1164"
"107.7000","35.9003","0.1164"
"107.8000","35.9337","0.1165"
"107.9000","35.9675","0.1166"
"108.0000","36.0007","0.1166"
"108.1000","36.0339","0.1167"
"108.2000","36.0671","0.1168"
"108.3000","36.1008","0.1169"
"108.4000","36.1341","0.1169"
"108.5000","36.1671","0.1170"
"108.6000","36.2004","0.1171"
"108.7000","36.2341","0.1171"
"108.8000","36.2673","0.1172"
"108.9000","36.3003","0.1173"
"109.0000","36.3337","0.1174"
"109.1000","36.3676","0.1174"
"109.2000","36.4007","0.1175"
"109.3000","36.4336","0.1175"
"109.4000","36.4669","0.1176"
"109.5000","36.5008","0.1177"
"109.6000","36.5340","0.1177"
"109.7000","36.5671","0.1178"
"109.8000","36.6004","0.1178"
"109.9000","36.6343","0.1179"
"110.0000","36.6675","0.1180"
"110.1000","36.7003","0.1180"
"110.2000","36.7336","0.1180"
"110.3000","36.7675","0.1181"
"110.4000","36.8007","0.1182"
"110.5000","36.8337","0.1182"
"110.6000","36.8672","0.1182"
"110.7000","36.9009","0.1183"
"110.8000","36.9341","0.1183"
"110.9000","36.9669","0.1183"
"111.0000","37.0004","0.1183"
"111.1000","37.0341","0.1184"
"111.2000","37.0673","0.1185"
"111.3000","37.1003","0.1185"
"111.4000","37.1336","0.1185"
"111.5000","37.1676","0.1186"
"111.6000","37.2008","0.1186"
"111.7000","37.2337","0.1187"
"111.8000","37.2671","0.1187"
"111.9000","37.3009","0.1188"
"112.0000","37.3341","0.1188"
"112.1000","37.3671","0.1189"
"112.2000","37.4004","0.1189"
"112.3000","37.4341","0.1190"
"112.4000","37.4673","0.1191"
"112.5000","37.5003","0.1191"
"112.6000","37.5336","0.1192"
"112.7000","37.5676","0.1192"
"112.8000","37.6007","0.1193"
"112.9000","37.6337","0.1193"
"113.0000","37.6671","0.1194"
"113.1000","37.7009","0.1195"
"113.2000","37.7343","0.1195"
"113.3000","37.7671","0.1196"
"113.4000","37.8004","0.1196"
"113.5000","37.8341","0.1197"
"113.6000","37.8673","0.1198"
"113.7000","37.9004","0.1198"
"113.8000","37.9337","0.1199"
"113.9000","37.9675","0.1199"
"114.0000","38.0007","0.1200"
"114.1000","38.0337","0.1201"
"114.2000","38.0671","0.1201"
"114.3000","38.1008","0.1202"
"114.4000","38.1340","0.1203"
"114.5000","38.1672","0.1203"
"114.6000","38.2004","0.1203"
"114.7000","38.2343","0.1205"
"114.8000","38.2673","0.1205"
"114.9000","38.3003","0.1205"
"115.0000","38.3336","0.1206"
"115.1000","38.3675","0.1206"
"115.2000","38.4008","0.1207"
"115.3000","38.4337","0.1207"
"115.4000","38.4671","0.1208"
"115.5000","38.5009","0.1207"
"115.6000","38.5341","0.1177"
"115.7000","38.5671","0.1143"
"115.8000","38.6003","0.1143"
"115.9000","38.6341","0.1143"
"116.0000","38.6673","0.1144"
"116.1000","38.7004","0.1145"
"116.2000","38.7337","0.1145"
"116.3000","38.7676","0.1147"
"116.4000","38.8009","0.1148"
"116.5000","38.8337","0.1148"
"116.6000","38.8669","0.1149"
"116.7000","38.9008","0.1151"
"116.8000","38.9340","0.1152"
"116.9000","38.9671","0.1153"
"117.0000","39.0004","0.1153"
"117.1000","39.0341","0.1155"
"117.2000","39.0673","0.1156"
"117.3000","39.1004","0.1157"
"117.4000","39.1337","0.1158"
"117.5000","39.1673","0.1159"
"117.6000","39.2007","0.1160"
"117.7000","39.2337","0.1161"
"117.8000","39.2671","0.1161"
"117.9000","39.3009","0.1163"
"118.0000","39.3341","0.1164"
"118.1000","39.3671","0.1165"
"118.2000","39.4004","0.1166"
"118.3000","39.4341","0.1167"
"118.4000","39.4673","0.1168"
"118.5000","39.5003","0.1169"
"118.6000","39.5337","0.1169"
"118.7000","39.5676","0.1171"
"118.8000","39.6007","0.1172"
"118.9000","39.6336","0.1172"
"119.0000","39.6669","0.1173"
"119.1000","39.7008","0.1174"
"119.2000","39.7341","0.1175"
"119.3000","39.7671","0.1176"
"119.4000","39.8004","0.1176"
"119.5000","39.8341","0.1177"
"119.6000","39.8673","0.1178"
"119.7000","39.9004","0.1178"
"119.8000","39.9337","0.1179"
"119.9000","39.9676","0.1180"
"120.0000","40.0007","0.1181"
"120.1000","40.0336","0.1181"
"120.2000","40.0671","0.1181"
"120.3000","40.1008","0.1183"
"120.4000","40.1340","0.1183"
"120.5000","40.1671","0.1184"
"120.6000","40.2004","0.1184"
"120.7000","40.2340","0.1185"
"120.8000","40.2672","0.1185"
"120.9000","40.3004","0.1186"
"121.0000","40.3336","0.1186"
"121.1000","40.3676","0.1187"
"121.2000","40.4008","0.1188"
"121.3000","40.4337","0.1188"
"121.4000","40.4671","0.1189"
"121.5000","40.5008","0.1189"
"121.6000","40.5340","0.1189"
"121.7000","40.5671","0.1190"
"121.8000","40.6004","0.1190"
"121.9000","40.6341","0.1191"
"122.0000","40.6673","0.1192"
"122.1000","40.7004","0.1192"
"122.2000","40.7337","0.1192"
"122.3000","40.7675","0.1193"
"122.4000","40.8007","0.1193"
"122.5000","40.8337","0.1193"
"122.6000","40.8671","0.1193"
"122.7000","40.9011","0.1193"
"122.8000","40.9341","0.1194"
"122.9000","40.9671","0.1194"
"123.0000","41.0004","0.1194"
"123.1000","41.0343","0.1194"
"123.2000","41.0673","0.1194"
"123.3000","41.1003","0.1194"
"123.4000","41.1336","0.1194"
"123.5000","41.1675","0.1195"
"123.6000","41.2008","0.1195"
"123.7000","41.2337","0.1194"
"123.8000","41.2671","0.1194"
"123.9000","41.3008","0.1194"
"124.0000","41.3341","0.1194"
"124.1000","41.3671","0.1194"
"124.2000","41.4004","0.1194"
"124.3000","41.4341","0.1194"
"124.4000","41.4675","0.1194"
"124.5000","41.5004","0.1194"
"124.6000","41.5337","0.1194"
"124.7000","41.5675","0.1194"
"124.8000","41.6007","0.1194"
"124.9000","41.6339","0.1195"
"125.0000","41.6671","0.1195"
"125.1000","41.7009","0.1195"
"125.2000","41.7341","0.1195"
"125.3000","41.7671","0.1195"
"125.4000","41.8003","0.1195"
"125.5000","41.8340","0.1195"
"125.6000","41.8673","0.1196"
"125.7000","41.9005","0.1196"
"125.8000","41.9336","0.1196"
"125.9000","41.9676","0.1196"
"126.0000","42.0008","0.1196"
"126.1000","42.0337","0.1196"
"126.2000","42.0671","0.1196"
"126.3000","42.1009","0.1196"
"126.4000","42.1340","0.1196"
"126.5000","42.1671","0.1196"
"126.6000","42.2004","0.1196"
"126.7000","42.2343","0.1195"
"126.8000","42.2673","0.1194"
"126.9000","42.3004","0.1194"
"127.0000","42.3336","0.1194"
"127.1000","42.3676","0.1194"
"127.2000","42.4007","0.1193"
"127.3000","42.4337","0.1193"
"127.4000","42.4671","0.1192"
"127.5000","42.5009","0.1192"
"127.6000","42.5341","0.1192"
"127.7000","42.5671","0.1191"
"127.8000","42.6004","0.1190"
"127.9000","42.6341","0.1190"
"128.0000","42.6675","0.1189"
"128.1000","42.7003","0.1188"
"128.2000","42.7337","0.1188"
"128.3000","42.7676","0.1187"
"128.4000","42.8007","0.1179"
"128.5000","42.8336","0.1176"
"128.6000","42.8671","0.1174"
"128.7000","42.9008","0.1173"
"128.8000","42.9340","0.1171"
"128.9000","42.9672","0.1170"
"129.0000","43.0004","0.1169"
"129.1000","43.0343","0.1168"
"129.2000","43.0675","0.1167"
"129.3000","43.1004","0.1166"
"129.4000","43.1337","0.1165"
"129.5000","43.1676","0.1165"
"129.6000","43.2008","0.1164"
"129.7000","43.2337","0.1163"
"129.8000","43.2671","0.1162"
"129.9000","43.3009","0.1162"
"130.0000","43.3340","0.1161"
"130.1000","43.3669","0.1159"
"130.2000","43.4004","0.1158"
"130.3000","43.4341","0.1156"
"130.4000","43.4672","0.1154"
"130.5000","43.5004","0.1153"
"130.6000","43.5337","0.1152"
"130.7000","43.5676","0.1150"
"130.8000","43.6008","0.1149"
"130.9000","43.6337","0.1148"
"131.0000","43.6671","0.1147"
"131.1000","43.7008","0.1146"
"131.2000","43.7340","0.1144"
"131.3000","43.7671","0.1143"
"131.4000","43.8005","0.1143"
"131.5000","43.8343","0.1142"
"131.6000","43.8673","0.1142"
"131.7000","43.9003","0.1141"
"131.8000","43.9337","0.1140"
"131.9000","43.9673","0.1139"
"132.0000","44.0005","0.1138"
"132.1000","44.0337","0.1137"
"132.2000","44.0671","0.1136"
"132.3000","44.1009","0.1135"
"132.4000","44.1341","0.1135"
"132.5000","44.1671","0.1134"
"132.6000","44.2004","0.1134"
"132.7000","44.2343","0.1133"
"132.8000","44.2673","0.1133"
"132.9000","44.3003","0.1132"
"133.0000","44.3337","0.1132"
"133.1000","44.3676","0.1131"
"133.2000","44.4007","0.1131"
"133.3000","44.4336","0.1130"
"133.4000","44.4671","0.1130"
"133.5000","44.5008","0.1130"
"133.6000","44.5340","0.1130"
"133.7000","44.5671","0.1129"
"133.8000","44.6003","0.1129"
"133.9000","44.6343","0.1129"
"134.0000","44.6675","0.1129"
"134.1000","44.7004","0.1128"
"134.2000","44.7337","0.1128"
"134.3000","44.7675","0.1128"
"134.4000","44.8007","0.1127"
"134.5000","44.8337","0.1127"
"134.6000","44.8672","0.1127"
"134.7000","44.9009","0.1124"
"134.8000","44.9340","0.1123"
"134.9000","44.9671","0.1122"
"135.0000","45.0003","0.1121"
"135.1000","45.0340","0.1120"
"135.2000","45.0673","0.1118"
"135.3000","45.1004","0.1118"
"135.4000","45.1337","0.1116"
"135.5000","45.1676","0.1115"
"135.6000","45.2008","0.1113"
"135.7000","45.2337","0.1112"
"135.8000","45.2671","0.1110"
"135.9000","45.3009","0.1109"
"136.0000","45.3340","0.1107"
"136.1000","45.3671","0.1106"
"136.2000","45.4004","0.1104"
"136.3000","45.4343","0.1103"
"136.4000","45.4673","0.1101"
"136.5000","45.5003","0.1099"
"136.6000","45.5336","0.1098"
"136.7000","45.5675","0.1097"
"136.8000","45.6007","0.1094"
"136.9000","45.6337","0.1091"
"137.0000","45.6671","0.1089"
"137.1000","45.7009","0.1087"
"137.2000","45.7341","0.1085"
"137.3000","45.7671","0.1084"
"137.4000","45.8003","0.1082"
"137.5000","45.8343","0.1080"
"137.6000","45.8673","0.1079"
"137.7000","45.9004","0.1077"
"137.8000","45.9337","0.1076"
"137.9000","45.9676","0.1075"
"138.0000","46.0008","0.1074"
"138.1000","46.0336","0.1074"
"138.2000","46.0669","0.1072"
"138.3000","46.1008","0.1072"
"138.4000","46.1341","0.1071"
"138.5000","46.1671","0.1070"
"138.6000","46.2004","0.1070"
"138.7000","46.2343","0.1070"
"138.8000","46.2675","0.1069"
"138.9000","46.3004","0.1068"
"139.0000","46.3337","0.1068"
"139.1000","46.3675","0.1067"
"139.2000","46.4008","0.1066"
"139.3000","46.4337","0.1064"
"139.4000","46.4671","0.1062"
"139.5000","46.5009","0.1061"
"139.6000","46.5340","0.1059"
"139.7000","46.5671","0.1057"
"139.8000","46.6004","0.1056"
"139.9000","46.6341","0.1054"
"140.0000","46.6673","0.1052"
"140.1000","46.7004","0.1050"
"140.2000","46.7337","0.1049"
"140.3000","46.7676","0.1047"
"140.4000","46.8008","0.1045"
"140.5000","46.8336","0.1044"
"140.6000","46.8671","0.1042"
"140.7000","46.9008","0.1041"
"140.8000","46.9341","0.1038"
"140.9000","46.9671","0.1036"
"141.0000","47.0004","0.1034"
"141.1000","47.0343","0.1033"
"141.2000","47.0675","0.1031"
"141.3000","47.1004","0.1029"
"141.4000","47.1337","0.1027"
"141.5000","47.1675","0.1025"
"141.6000","47.2005","0.1023"
"141.7000","47.2337","0.1021"
"141.8000","47.2669","0.1018"
"141.9000","47.3009","0.1015"
"142.0000","47.3341","0.1011"
"142.1000","47.3671","0.1006"
"142.2000","47.4004","0.1000"
"142.3000","47.4343","0.0949"
"142.4000","47.4676","0.0909"
"142.5000","47.5004","0.0896"
"142.6000","47.5337","0.0884"
"142.7000","47.5676","0.0872"
"142.8000","47.6007","0.0860"
"142.9000","47.6336","0.0848"
"143.0000","47.6671","0.0832"
"143.1000","47.7009","0.0747"
"143.1140","47.7059","0.0467"