File: Reports and Data/Tensile testing/TENSILE TEST.is_qtest_Exports/TENSILE TEST_6.csv
Time,Displacement,Force
(s),(mm),(kN)
"0.0000","0.0000","0.0000"
"0.2000","0.0607","0.0001"
"0.4000","0.1317","0.0002"
"0.6000","0.2000","0.0002"
"0.8000","0.2673","0.0003"
"1.0000","0.3341","0.0005"
"1.2000","0.4005","0.0004"
"1.4000","0.4673","0.0006"
"1.6000","0.5339","0.0006"
"1.8000","0.6007","0.0007"
"2.0000","0.6672","0.0008"
"2.2000","0.7340","0.0008"
"2.4000","0.8008","0.0009"
"2.6000","0.8675","0.0010"
"2.8000","0.9340","0.0010"
"3.0000","1.0007","0.0011"
"3.2000","1.0673","0.0011"
"3.4000","1.1343","0.0012"
"3.6000","1.2005","0.0013"
"3.8000","1.2673","0.0013"
"4.0000","1.3340","0.0014"
"4.2000","1.4007","0.0014"
"4.4000","1.4673","0.0015"
"4.6000","1.5340","0.0015"
"4.8000","1.6007","0.0016"
"5.0000","1.6675","0.0017"
"5.2000","1.7337","0.0017"
"5.4000","1.8007","0.0018"
"5.6000","1.8675","0.0018"
"5.8000","1.9341","0.0019"
"6.0000","2.0007","0.0019"
"6.2000","2.0673","0.0019"
"6.4000","2.1340","0.0020"
"6.6000","2.2007","0.0021"
"6.8000","2.2675","0.0021"
"7.0000","2.3341","0.0022"
"7.2000","2.4004","0.0022"
"7.4000","2.4675","0.0022"
"7.6000","2.5339","0.0023"
"7.8000","2.6008","0.0023"
"8.0000","2.6673","0.0024"
"8.2000","2.7340","0.0024"
"8.4000","2.8007","0.0025"
"8.6000","2.8675","0.0025"
"8.8000","2.9341","0.0026"
"9.0000","3.0008","0.0026"
"9.2000","3.0673","0.0026"
"9.4000","3.1340","0.0027"
"9.6000","3.2007","0.0027"
"9.8000","3.2675","0.0028"
"10.0000","3.3340","0.0028"
"10.2000","3.4007","0.0029"
"10.4000","3.4675","0.0029"
"10.6000","3.5341","0.0029"
"10.8000","3.6008","0.0030"
"11.0000","3.6675","0.0030"
"11.2000","3.7340","0.0031"
"11.4000","3.8008","0.0031"
"11.6000","3.8672","0.0032"
"11.8000","3.9340","0.0032"
"12.0000","4.0007","0.0032"
"12.2000","4.0675","0.0032"
"12.4000","4.1339","0.0033"
"12.6000","4.2007","0.0033"
"12.8000","4.2673","0.0034"
"13.0000","4.3341","0.0034"
"13.2000","4.4007","0.0034"
"13.4000","4.4675","0.0035"
"13.6000","4.5340","0.0035"
"13.8000","4.6008","0.0036"
"14.0000","4.6672","0.0036"
"14.2000","4.7340","0.0036"
"14.4000","4.8005","0.0037"
"14.6000","4.8675","0.0037"
"14.8000","4.9340","0.0037"
"15.0000","5.0007","0.0038"
"15.2000","5.0675","0.0038"
"15.4000","5.1341","0.0038"
"15.6000","5.2005","0.0039"
"15.8000","5.2672","0.0039"
"16.0000","5.3340","0.0039"
"16.2000","5.4007","0.0039"
"16.4000","5.4673","0.0040"
"16.6000","5.5340","0.0041"
"16.8000","5.6008","0.0040"
"17.0000","5.6675","0.0041"
"17.2000","5.7339","0.0041"
"17.4000","5.8007","0.0042"
"17.6000","5.8672","0.0042"
"17.8000","5.9341","0.0042"
"18.0000","6.0007","0.0043"
"18.2000","6.0673","0.0043"
"18.4000","6.1340","0.0043"
"18.6000","6.2008","0.0043"
"18.8000","6.2673","0.0044"
"19.0000","6.3340","0.0044"
"19.2000","6.4007","0.0044"
"19.4000","6.4675","0.0045"
"19.6000","6.5340","0.0045"
"19.8000","6.6007","0.0045"
"20.0000","6.6673","0.0046"
"20.2000","6.7341","0.0046"
"20.4000","6.8005","0.0047"
"20.6000","6.8673","0.0047"
"20.8000","6.9340","0.0047"
"21.0000","7.0008","0.0048"
"21.2000","7.0673","0.0047"
"21.4000","7.1340","0.0048"
"21.6000","7.2007","0.0049"
"21.8000","7.2675","0.0048"
"22.0000","7.3341","0.0049"
"22.2000","7.4008","0.0049"
"22.4000","7.4673","0.0050"
"22.6000","7.5341","0.0050"
"22.8000","7.6005","0.0050"
"23.0000","7.6675","0.0050"
"23.2000","7.7341","0.0051"
"23.4000","7.8008","0.0051"
"23.6000","7.8673","0.0051"
"23.8000","7.9339","0.0052"
"24.0000","8.0007","0.0052"
"24.2000","8.0675","0.0052"
"24.4000","8.1340","0.0052"
"24.6000","8.2007","0.0053"
"24.8000","8.2675","0.0053"
"25.0000","8.3341","0.0054"
"25.2000","8.4007","0.0053"
"25.4000","8.4672","0.0054"
"25.6000","8.5340","0.0055"
"25.8000","8.6008","0.0055"
"26.0000","8.6673","0.0055"
"26.2000","8.7340","0.0056"
"26.4000","8.8005","0.0055"
"26.6000","8.8673","0.0056"
"26.8000","8.9340","0.0056"
"27.0000","9.0005","0.0057"
"27.2000","9.0671","0.0057"
"27.4000","9.1341","0.0057"
"27.6000","9.2008","0.0057"
"27.8000","9.2675","0.0058"
"28.0000","9.3340","0.0058"
"28.2000","9.4005","0.0058"
"28.4000","9.4673","0.0059"
"28.6000","9.5341","0.0059"
"28.8000","9.6007","0.0059"
"29.0000","9.6673","0.0060"
"29.2000","9.7339","0.0060"
"29.4000","9.8008","0.0060"
"29.6000","9.8675","0.0061"
"29.8000","9.9341","0.0061"
"30.0000","10.0007","0.0061"
"30.2000","10.0673","0.0062"
"30.4000","10.1340","0.0062"
"30.6000","10.2008","0.0062"
"30.8000","10.2672","0.0062"
"31.0000","10.3337","0.0063"
"31.2000","10.4007","0.0063"
"31.4000","10.4675","0.0063"
"31.6000","10.5340","0.0064"
"31.8000","10.6007","0.0064"
"32.0000","10.6672","0.0064"
"32.2000","10.7341","0.0065"
"32.4000","10.8007","0.0065"
"32.6000","10.8675","0.0065"
"32.8000","10.9340","0.0066"
"33.0000","11.0008","0.0066"
"33.2000","11.0673","0.0066"
"33.4000","11.1341","0.0066"
"33.6000","11.2007","0.0067"
"33.8000","11.2675","0.0067"
"34.0000","11.3340","0.0068"
"34.2000","11.4007","0.0068"
"34.4000","11.4675","0.0068"
"34.6000","11.5341","0.0069"
"34.8000","11.6008","0.0068"
"35.0000","11.6673","0.0069"
"35.2000","11.7340","0.0069"
"35.4000","11.8008","0.0070"
"35.6000","11.8673","0.0070"
"35.8000","11.9340","0.0071"
"36.0000","12.0007","0.0070"
"36.2000","12.0675","0.0071"
"36.4000","12.1340","0.0071"
"36.6000","12.2008","0.0071"
"36.8000","12.2673","0.0072"
"37.0000","12.3340","0.0072"
"37.2000","12.4005","0.0072"
"37.4000","12.4673","0.0073"
"37.6000","12.5341","0.0073"
"37.8000","12.6008","0.0073"
"38.0000","12.6672","0.0073"
"38.2000","12.7340","0.0074"
"38.4000","12.8005","0.0074"
"38.6000","12.8675","0.0074"
"38.8000","12.9340","0.0075"
"39.0000","13.0007","0.0075"
"39.2000","13.0673","0.0075"
"39.4000","13.1341","0.0076"
"39.6000","13.2005","0.0076"
"39.8000","13.2673","0.0077"
"40.0000","13.3340","0.0077"
"40.2000","13.4007","0.0077"
"40.4000","13.4672","0.0077"
"40.6000","13.5340","0.0078"
"40.8000","13.6007","0.0078"
"41.0000","13.6675","0.0078"
"41.2000","13.7339","0.0079"
"41.4000","13.8008","0.0079"
"41.6000","13.8673","0.0079"
"41.8000","13.9341","0.0080"
"42.0000","14.0007","0.0080"
"42.2000","14.0673","0.0080"
"42.4000","14.1341","0.0081"
"42.6000","14.2008","0.0080"
"42.8000","14.2673","0.0081"
"43.0000","14.3340","0.0082"
"43.2000","14.4005","0.0082"
"43.4000","14.4675","0.0082"
"43.6000","14.5340","0.0082"
"43.8000","14.6008","0.0083"
"44.0000","14.6675","0.0083"
"44.2000","14.7341","0.0083"
"44.4000","14.8007","0.0084"
"44.6000","14.8673","0.0084"
"44.8000","14.9340","0.0084"
"45.0000","15.0008","0.0085"
"45.2000","15.0673","0.0085"
"45.4000","15.1340","0.0085"
"45.6000","15.2008","0.0085"
"45.8000","15.2675","0.0086"
"46.0000","15.3339","0.0086"
"46.2000","15.4005","0.0086"
"46.4000","15.4673","0.0087"
"46.6000","15.5341","0.0087"
"46.8000","15.6007","0.0087"
"47.0000","15.6673","0.0088"
"47.2000","15.7341","0.0088"
"47.4000","15.8008","0.0088"
"47.6000","15.8675","0.0089"
"47.8000","15.9339","0.0089"
"48.0000","16.0005","0.0089"
"48.2000","16.0673","0.0089"
"48.4000","16.1340","0.0090"
"48.6000","16.2007","0.0090"
"48.8000","16.2675","0.0091"
"49.0000","16.3341","0.0091"
"49.2000","16.4007","0.0091"
"49.4000","16.4672","0.0091"
"49.6000","16.5339","0.0092"
"49.8000","16.6008","0.0092"
"50.0000","16.6673","0.0093"
"50.2000","16.7340","0.0092"
"50.4000","16.8007","0.0093"
"50.6000","16.8675","0.0093"
"50.8000","16.9340","0.0094"
"51.0000","17.0005","0.0094"
"51.2000","17.0671","0.0094"
"51.4000","17.1341","0.0095"
"51.6000","17.2007","0.0095"
"51.8000","17.2673","0.0095"
"52.0000","17.3341","0.0096"
"52.2000","17.4005","0.0096"
"52.4000","17.4675","0.0096"
"52.6000","17.5340","0.0096"
"52.8000","17.6005","0.0097"
"53.0000","17.6675","0.0098"
"53.2000","17.7340","0.0098"
"53.4000","17.8008","0.0098"
"53.6000","17.8673","0.0098"
"53.8000","17.9341","0.0099"
"54.0000","18.0005","0.0099"
"54.2000","18.0673","0.0099"
"54.4000","18.1340","0.0100"
"54.6000","18.2008","0.0100"
"54.8000","18.2672","0.0100"
"55.0000","18.3340","0.0101"
"55.2000","18.4007","0.0101"
"55.4000","18.4675","0.0102"
"55.6000","18.5340","0.0102"
"55.8000","18.6007","0.0102"
"56.0000","18.6672","0.0103"
"56.2000","18.7341","0.0103"
"56.4000","18.8007","0.0104"
"56.6000","18.8673","0.0104"
"56.8000","18.9340","0.0104"
"57.0000","19.0008","0.0104"
"57.2000","19.0673","0.0105"
"57.4000","19.1340","0.0105"
"57.6000","19.2007","0.0106"
"57.8000","19.2676","0.0106"
"58.0000","19.3339","0.0106"
"58.2000","19.4007","0.0107"
"58.4000","19.4675","0.0107"
"58.6000","19.5341","0.0108"
"58.8000","19.6007","0.0108"
"59.0000","19.6673","0.0108"
"59.2000","19.7340","0.0108"
"59.4000","19.8008","0.0109"
"59.6000","19.8673","0.0109"
"59.8000","19.9340","0.0110"
"60.0000","20.0007","0.0110"
"60.2000","20.0675","0.0111"
"60.4000","20.1339","0.0111"
"60.6000","20.2007","0.0111"
"60.8000","20.2673","0.0111"
"61.0000","20.3341","0.0112"
"61.2000","20.4007","0.0112"
"61.4000","20.4673","0.0113"
"61.6000","20.5340","0.0113"
"61.8000","20.6007","0.0114"
"62.0000","20.6673","0.0114"
"62.2000","20.7340","0.0114"
"62.4000","20.8007","0.0115"
"62.6000","20.8675","0.0115"
"62.8000","20.9340","0.0116"
"63.0000","21.0007","0.0116"
"63.2000","21.0673","0.0117"
"63.4000","21.1341","0.0117"
"63.6000","21.2005","0.0117"
"63.8000","21.2673","0.0118"
"64.0000","21.3340","0.0118"
"64.2000","21.4007","0.0119"
"64.4000","21.4673","0.0119"
"64.6000","21.5341","0.0120"
"64.8000","21.6008","0.0120"
"65.0000","21.6673","0.0120"
"65.2000","21.7337","0.0121"
"65.4000","21.8007","0.0121"
"65.6000","21.8673","0.0122"
"65.8000","21.9341","0.0122"
"66.0000","22.0007","0.0123"
"66.2000","22.0673","0.0123"
"66.4000","22.1341","0.0123"
"66.6000","22.2007","0.0124"
"66.8000","22.2673","0.0124"
"67.0000","22.3340","0.0125"
"67.2000","22.4007","0.0125"
"67.4000","22.4675","0.0126"
"67.6000","22.5340","0.0126"
"67.8000","22.6008","0.0127"
"68.0000","22.6673","0.0127"
"68.2000","22.7343","0.0128"
"68.4000","22.8007","0.0128"
"68.6000","22.8672","0.0129"
"68.8000","22.9339","0.0129"
"69.0000","23.0008","0.0130"
"69.2000","23.0673","0.0130"
"69.4000","23.1340","0.0131"
"69.6000","23.2007","0.0131"
"69.8000","23.2675","0.0132"
"70.0000","23.3340","0.0132"
"70.2000","23.4007","0.0133"
"70.4000","23.4673","0.0133"
"70.6000","23.5341","0.0134"
"70.8000","23.6007","0.0134"
"71.0000","23.6673","0.0134"
"71.2000","23.7340","0.0135"
"71.4000","23.8008","0.0136"
"71.6000","23.8675","0.0136"
"71.8000","23.9341","0.0137"
"72.0000","24.0007","0.0137"
"72.2000","24.0673","0.0137"
"72.4000","24.1340","0.0138"
"72.6000","24.2008","0.0139"
"72.8000","24.2675","0.0139"
"73.0000","24.3341","0.0139"
"73.2000","24.4007","0.0140"
"73.4000","24.4675","0.0141"
"73.6000","24.5339","0.0141"
"73.8000","24.6008","0.0142"
"74.0000","24.6673","0.0142"
"74.2000","24.7340","0.0143"
"74.4000","24.8007","0.0143"
"74.6000","24.8675","0.0144"
"74.8000","24.9339","0.0144"
"75.0000","25.0005","0.0144"
"75.2000","25.0673","0.0145"
"75.4000","25.1341","0.0146"
"75.6000","25.2007","0.0146"
"75.8000","25.2673","0.0147"
"76.0000","25.3341","0.0147"
"76.2000","25.4008","0.0148"
"76.4000","25.4673","0.0148"
"76.6000","25.5340","0.0149"
"76.8000","25.6007","0.0149"
"77.0000","25.6673","0.0150"
"77.2000","25.7340","0.0150"
"77.4000","25.8007","0.0151"
"77.6000","25.8673","0.0151"
"77.8000","25.9343","0.0152"
"78.0000","26.0007","0.0152"
"78.2000","26.0673","0.0153"
"78.4000","26.1340","0.0153"
"78.6000","26.2008","0.0154"
"78.8000","26.2673","0.0154"
"79.0000","26.3340","0.0155"
"79.2000","26.4008","0.0155"
"79.4000","26.4676","0.0156"
"79.6000","26.5339","0.0157"
"79.8000","26.6007","0.0157"
"80.0000","26.6672","0.0157"
"80.2000","26.7340","0.0158"
"80.4000","26.8005","0.0159"
"80.6000","26.8673","0.0159"
"80.8000","26.9341","0.0160"
"81.0000","27.0008","0.0161"
"81.2000","27.0673","0.0161"
"81.4000","27.1340","0.0162"
"81.6000","27.2008","0.0162"
"81.8000","27.2675","0.0163"
"82.0000","27.3339","0.0163"
"82.2000","27.4005","0.0164"
"82.4000","27.4673","0.0164"
"82.6000","27.5343","0.0165"
"82.8000","27.6008","0.0165"
"83.0000","27.6673","0.0165"
"83.2000","27.7339","0.0166"
"83.4000","27.8008","0.0167"
"83.6000","27.8673","0.0167"
"83.8000","27.9340","0.0168"
"84.0000","28.0008","0.0168"
"84.2000","28.0675","0.0169"
"84.4000","28.1340","0.0170"
"84.6000","28.2007","0.0170"
"84.8000","28.2673","0.0171"
"85.0000","28.3341","0.0171"
"85.2000","28.4005","0.0172"
"85.4000","28.4673","0.0172"
"85.6000","28.5340","0.0173"
"85.8000","28.6008","0.0173"
"86.0000","28.6673","0.0174"
"86.2000","28.7341","0.0174"
"86.4000","28.8005","0.0175"
"86.6000","28.8675","0.0175"
"86.8000","28.9340","0.0176"
"87.0000","29.0008","0.0176"
"87.2000","29.0673","0.0177"
"87.4000","29.1341","0.0177"
"87.6000","29.2007","0.0178"
"87.8000","29.2672","0.0178"
"88.0000","29.3340","0.0179"
"88.2000","29.4007","0.0180"
"88.4000","29.4673","0.0180"
"88.6000","29.5340","0.0181"
"88.8000","29.6005","0.0182"
"89.0000","29.6676","0.0182"
"89.2000","29.7340","0.0183"
"89.4000","29.8008","0.0183"
"89.6000","29.8673","0.0184"
"89.8000","29.9341","0.0185"
"90.0000","30.0007","0.0185"
"90.2000","30.0673","0.0186"
"90.4000","30.1341","0.0186"
"90.6000","30.2009","0.0187"
"90.8000","30.2672","0.0188"
"91.0000","30.3340","0.0188"
"91.2000","30.4005","0.0189"
"91.4000","30.4676","0.0189"
"91.6000","30.5340","0.0190"
"91.8000","30.6005","0.0191"
"92.0000","30.6672","0.0191"
"92.2000","30.7341","0.0192"
"92.4000","30.8008","0.0193"
"92.6000","30.8675","0.0193"
"92.8000","30.9340","0.0194"
"93.0000","31.0007","0.0195"
"93.2000","31.0675","0.0195"
"93.4000","31.1341","0.0196"
"93.6000","31.2007","0.0197"
"93.8000","31.2675","0.0197"
"94.0000","31.3337","0.0198"
"94.2000","31.4007","0.0199"
"94.4000","31.4673","0.0199"
"94.6000","31.5341","0.0200"
"94.8000","31.6007","0.0200"
"95.0000","31.6673","0.0201"
"95.2000","31.7340","0.0202"
"95.4000","31.8008","0.0202"
"95.6000","31.8673","0.0203"
"95.8000","31.9341","0.0204"
"96.0000","32.0007","0.0204"
"96.2000","32.0675","0.0205"
"96.4000","32.1340","0.0206"
"96.6000","32.2008","0.0206"
"96.8000","32.2675","0.0207"
"97.0000","32.3341","0.0207"
"97.2000","32.4005","0.0208"
"97.4000","32.4673","0.0208"
"97.6000","32.5340","0.0209"
"97.8000","32.6008","0.0210"
"98.0000","32.6673","0.0210"
"98.2000","32.7340","0.0211"
"98.4000","32.8008","0.0211"
"98.6000","32.8675","0.0212"
"98.8000","32.9340","0.0213"
"99.0000","33.0007","0.0214"
"99.2000","33.0672","0.0214"
"99.4000","33.1340","0.0215"
"99.6000","33.2007","0.0215"
"99.8000","33.2673","0.0216"
"100.0000","33.3341","0.0217"
"100.2000","33.4008","0.0218"
"100.4000","33.4672","0.0218"
"100.6000","33.5340","0.0219"
"100.8000","33.6005","0.0219"
"101.0000","33.6675","0.0220"
"101.2000","33.7339","0.0221"
"101.4000","33.8007","0.0221"
"101.6000","33.8673","0.0221"
"101.8000","33.9341","0.0223"
"102.0000","34.0007","0.0223"
"102.2000","34.0673","0.0224"
"102.4000","34.1339","0.0224"
"102.6000","34.2008","0.0225"
"102.8000","34.2673","0.0226"
"103.0000","34.3340","0.0226"
"103.2000","34.4007","0.0227"
"103.4000","34.4675","0.0228"
"103.6000","34.5340","0.0229"
"103.8000","34.6007","0.0229"
"104.0000","34.6672","0.0229"
"104.2000","34.7341","0.0231"
"104.4000","34.8007","0.0231"
"104.6000","34.8673","0.0232"
"104.8000","34.9340","0.0233"
"105.0000","35.0008","0.0233"
"105.2000","35.0673","0.0234"
"105.4000","35.1340","0.0235"
"105.6000","35.2007","0.0236"
"105.8000","35.2676","0.0236"
"106.0000","35.3339","0.0237"
"106.2000","35.4007","0.0238"
"106.4000","35.4675","0.0238"
"106.6000","35.5341","0.0239"
"106.8000","35.6007","0.0240"
"107.0000","35.6673","0.0240"
"107.2000","35.7340","0.0241"
"107.4000","35.8008","0.0242"
"107.6000","35.8673","0.0242"
"107.8000","35.9341","0.0244"
"108.0000","36.0007","0.0244"
"108.2000","36.0675","0.0245"
"108.4000","36.1340","0.0246"
"108.6000","36.2007","0.0247"
"108.8000","36.2672","0.0247"
"109.0000","36.3343","0.0248"
"109.2000","36.4005","0.0249"
"109.4000","36.4675","0.0250"
"109.6000","36.5341","0.0251"
"109.8000","36.6007","0.0251"
"110.0000","36.6672","0.0252"
"110.2000","36.7340","0.0253"
"110.4000","36.8007","0.0254"
"110.6000","36.8675","0.0254"
"110.8000","36.9336","0.0256"
"111.0000","37.0007","0.0256"
"111.2000","37.0675","0.0257"
"111.4000","37.1341","0.0258"
"111.6000","37.2007","0.0259"
"111.8000","37.2668","0.0259"
"112.0000","37.3340","0.0260"
"112.2000","37.4009","0.0261"
"112.4000","37.4676","0.0262"
"112.6000","37.5340","0.0263"
"112.8000","37.6004","0.0264"
"113.0000","37.6675","0.0265"
"113.2000","37.7341","0.0265"
"113.4000","37.8011","0.0266"
"113.6000","37.8675","0.0267"
"113.8000","37.9337","0.0268"
"114.0000","38.0007","0.0269"
"114.2000","38.0675","0.0269"
"114.4000","38.1343","0.0270"
"114.6000","38.2009","0.0271"
"114.8000","38.2668","0.0271"
"115.0000","38.3340","0.0273"
"115.2000","38.4007","0.0273"
"115.4000","38.4677","0.0274"
"115.6000","38.5341","0.0275"
"115.8000","38.6005","0.0275"
"116.0000","38.6672","0.0276"
"116.2000","38.7341","0.0277"
"116.4000","38.8007","0.0277"
"116.6000","38.8675","0.0278"
"116.8000","38.9341","0.0279"
"117.0000","39.0008","0.0279"
"117.2000","39.0673","0.0279"
"117.4000","39.1341","0.0280"
"117.6000","39.2008","0.0281"
"117.8000","39.2676","0.0281"
"118.0000","39.3340","0.0282"
"118.2000","39.4007","0.0283"
"118.4000","39.4673","0.0283"
"118.6000","39.5341","0.0284"
"118.8000","39.6007","0.0284"
"119.0000","39.6673","0.0285"
"119.2000","39.7340","0.0286"
"119.4000","39.8008","0.0287"
"119.6000","39.8673","0.0287"
"119.8000","39.9341","0.0288"
"120.0000","40.0005","0.0289"
"120.2000","40.0675","0.0289"
"120.4000","40.1339","0.0290"
"120.6000","40.2007","0.0290"
"120.8000","40.2673","0.0291"
"121.0000","40.3341","0.0292"
"121.2000","40.4007","0.0292"
"121.4000","40.4673","0.0293"
"121.6000","40.5340","0.0294"
"121.8000","40.6007","0.0295"
"122.0000","40.6673","0.0295"
"122.2000","40.7340","0.0296"
"122.4000","40.8008","0.0296"
"122.6000","40.8675","0.0297"
"122.8000","40.9340","0.0298"
"123.0000","41.0007","0.0299"
"123.2000","41.0673","0.0299"
"123.4000","41.1341","0.0300"
"123.6000","41.2007","0.0300"
"123.8000","41.2673","0.0301"
"124.0000","41.3340","0.0302"
"124.2000","41.4008","0.0303"
"124.4000","41.4673","0.0303"
"124.6000","41.5340","0.0304"
"124.8000","41.6005","0.0305"
"125.0000","41.6675","0.0305"
"125.2000","41.7340","0.0306"
"125.4000","41.8008","0.0307"
"125.6000","41.8675","0.0307"
"125.8000","41.9341","0.0308"
"126.0000","42.0007","0.0309"
"126.2000","42.0673","0.0309"
"126.4000","42.1340","0.0310"
"126.6000","42.2008","0.0311"
"126.8000","42.2675","0.0312"
"127.0000","42.3340","0.0313"
"127.2000","42.4007","0.0313"
"127.4000","42.4675","0.0314"
"127.6000","42.5340","0.0315"
"127.8000","42.6007","0.0316"
"128.0000","42.6673","0.0316"
"128.2000","42.7341","0.0317"
"128.4000","42.8007","0.0318"
"128.6000","42.8675","0.0318"
"128.8000","42.9341","0.0319"
"129.0000","43.0008","0.0319"
"129.2000","43.0673","0.0320"
"129.4000","43.1340","0.0321"
"129.6000","43.2007","0.0321"
"129.8000","43.2673","0.0322"
"130.0000","43.3339","0.0323"
"130.2000","43.4007","0.0323"
"130.4000","43.4675","0.0324"
"130.6000","43.5341","0.0325"
"130.8000","43.6005","0.0325"
"131.0000","43.6672","0.0326"
"131.2000","43.7341","0.0327"
"131.4000","43.8007","0.0328"
"131.6000","43.8673","0.0329"
"131.8000","43.9339","0.0330"
"132.0000","44.0007","0.0330"
"132.2000","44.0676","0.0332"
"132.4000","44.1340","0.0333"
"132.6000","44.2007","0.0334"
"132.8000","44.2672","0.0334"
"133.0000","44.3340","0.0335"
"133.2000","44.4008","0.0336"
"133.4000","44.4673","0.0337"
"133.6000","44.5340","0.0338"
"133.8000","44.6005","0.0339"
"134.0000","44.6672","0.0339"
"134.2000","44.7341","0.0340"
"134.4000","44.8007","0.0341"
"134.6000","44.8675","0.0342"
"134.8000","44.9339","0.0343"
"135.0000","45.0007","0.0344"
"135.2000","45.0675","0.0345"
"135.4000","45.1341","0.0346"
"135.6000","45.2007","0.0347"
"135.8000","45.2671","0.0348"
"136.0000","45.3340","0.0349"
"136.2000","45.4009","0.0349"
"136.4000","45.4673","0.0351"
"136.6000","45.5340","0.0351"
"136.8000","45.6007","0.0353"
"137.0000","45.6675","0.0354"
"137.2000","45.7340","0.0354"
"137.4000","45.8007","0.0356"
"137.6000","45.8673","0.0356"
"137.8000","45.9341","0.0357"
"138.0000","46.0007","0.0359"
"138.2000","46.0673","0.0360"
"138.4000","46.1341","0.0361"
"138.6000","46.2008","0.0362"
"138.8000","46.2672","0.0362"
"139.0000","46.3340","0.0364"
"139.2000","46.4007","0.0365"
"139.4000","46.4675","0.0365"
"139.6000","46.5340","0.0367"
"139.8000","46.6008","0.0367"
"140.0000","46.6673","0.0368"
"140.2000","46.7341","0.0369"
"140.4000","46.8007","0.0370"
"140.6000","46.8673","0.0370"
"140.8000","46.9340","0.0371"
"141.0000","47.0008","0.0372"
"141.2000","47.0673","0.0372"
"141.4000","47.1340","0.0373"
"141.6000","47.2007","0.0373"
"141.8000","47.2675","0.0374"
"142.0000","47.3339","0.0375"
"142.2000","47.4007","0.0375"
"142.4000","47.4673","0.0376"
"142.6000","47.5340","0.0376"
"142.8000","47.6007","0.0377"
"143.0000","47.6673","0.0378"
"143.2000","47.7340","0.0378"
"143.4000","47.8008","0.0379"
"143.6000","47.8673","0.0380"
"143.8000","47.9341","0.0381"
"144.0000","48.0005","0.0381"
"144.2000","48.0675","0.0382"
"144.4000","48.1340","0.0383"
"144.6000","48.2007","0.0384"
"144.8000","48.2675","0.0384"
"145.0000","48.3341","0.0385"
"145.2000","48.4007","0.0386"
"145.4000","48.4673","0.0387"
"145.6000","48.5340","0.0387"
"145.8000","48.6008","0.0388"
"146.0000","48.6672","0.0389"
"146.2000","48.7340","0.0389"
"146.4000","48.8008","0.0390"
"146.6000","48.8675","0.0391"
"146.8000","48.9339","0.0391"
"147.0000","49.0007","0.0392"
"147.2000","49.0673","0.0393"
"147.4000","49.1341","0.0394"
"147.6000","49.2007","0.0394"
"147.8000","49.2673","0.0395"
"148.0000","49.3341","0.0396"
"148.2000","49.4008","0.0397"
"148.4000","49.4673","0.0397"
"148.6000","49.5340","0.0399"
"148.8000","49.6005","0.0399"
"149.0000","49.6675","0.0400"
"149.2000","49.7340","0.0401"
"149.4000","49.8008","0.0402"
"149.6000","49.8675","0.0403"
"149.8000","49.9341","0.0404"
"150.0000","50.0008","0.0405"
"150.2000","50.0673","0.0406"
"150.4000","50.1339","0.0407"
"150.6000","50.2007","0.0408"
"150.8000","50.2672","0.0409"
"151.0000","50.3340","0.0410"
"151.2000","50.4007","0.0411"
"151.4000","50.4673","0.0412"
"151.6000","50.5340","0.0413"
"151.8000","50.6007","0.0414"
"152.0000","50.6673","0.0415"
"152.2000","50.7343","0.0416"
"152.4000","50.8004","0.0416"
"152.6000","50.8673","0.0418"
"152.8000","50.9341","0.0419"
"153.0000","51.0009","0.0419"
"153.2000","51.0673","0.0421"
"153.4000","51.1341","0.0422"
"153.6000","51.2004","0.0423"
"153.8000","51.2676","0.0424"
"154.0000","51.3341","0.0425"
"154.2000","51.4007","0.0426"
"154.4000","51.4675","0.0427"
"154.6000","51.5339","0.0428"
"154.8000","51.6007","0.0429"
"155.0000","51.6675","0.0430"
"155.2000","51.7340","0.0431"
"155.4000","51.8008","0.0431"
"155.6000","51.8672","0.0432"
"155.8000","51.9340","0.0433"
"156.0000","52.0008","0.0433"
"156.2000","52.0676","0.0434"
"156.4000","52.1340","0.0435"
"156.6000","52.2004","0.0435"
"156.8000","52.2673","0.0436"
"157.0000","52.3343","0.0437"
"157.2000","52.4008","0.0438"
"157.4000","52.4675","0.0439"
"157.6000","52.5337","0.0440"
"157.8000","52.6008","0.0441"
"158.0000","52.6673","0.0442"
"158.2000","52.7341","0.0444"
"158.4000","52.8007","0.0445"
"158.6000","52.8672","0.0446"
"158.8000","52.9340","0.0447"
"159.0000","53.0007","0.0448"
"159.2000","53.0675","0.0449"
"159.4000","53.1341","0.0451"
"159.6000","53.2007","0.0451"
"159.8000","53.2673","0.0452"
"160.0000","53.3340","0.0453"
"160.2000","53.4008","0.0454"
"160.4000","53.4672","0.0454"
"160.6000","53.5341","0.0455"
"160.8000","53.6008","0.0455"
"161.0000","53.6675","0.0456"
"161.2000","53.7340","0.0456"
"161.4000","53.8007","0.0456"
"161.6000","53.8673","0.0457"
"161.8000","53.9341","0.0457"
"162.0000","54.0007","0.0458"
"162.2000","54.0673","0.0459"
"162.4000","54.1341","0.0459"
"162.6000","54.2008","0.0460"
"162.8000","54.2672","0.0461"
"163.0000","54.3340","0.0462"
"163.2000","54.4007","0.0464"
"163.4000","54.4675","0.0465"
"163.6000","54.5340","0.0466"
"163.8000","54.6007","0.0467"
"164.0000","54.6675","0.0468"
"164.2000","54.7341","0.0469"
"164.4000","54.8007","0.0470"
"164.6000","54.8673","0.0472"
"164.8000","54.9340","0.0472"
"165.0000","55.0008","0.0473"
"165.2000","55.0673","0.0474"
"165.4000","55.1340","0.0475"
"165.6000","55.2005","0.0476"
"165.8000","55.2673","0.0477"
"166.0000","55.3340","0.0478"
"166.2000","55.4008","0.0479"
"166.4000","55.4672","0.0480"
"166.6000","55.5341","0.0480"
"166.8000","55.6007","0.0481"
"167.0000","55.6675","0.0481"
"167.2000","55.7341","0.0481"
"167.4000","55.8008","0.0481"
"167.6000","55.8672","0.0481"
"167.8000","55.9340","0.0482"
"168.0000","56.0007","0.0482"
"168.2000","56.0675","0.0484"
"168.4000","56.1340","0.0484"
"168.6000","56.2007","0.0485"
"168.8000","56.2673","0.0485"
"169.0000","56.3341","0.0487"
"169.2000","56.4007","0.0487"
"169.4000","56.4673","0.0487"
"169.6000","56.5340","0.0488"
"169.8000","56.6008","0.0488"
"170.0000","56.6673","0.0488"
"170.2000","56.7340","0.0488"
"170.4000","56.8007","0.0488"
"170.6000","56.8675","0.0489"
"170.8000","56.9339","0.0489"
"171.0000","57.0007","0.0490"
"171.2000","57.0672","0.0490"
"171.4000","57.1341","0.0491"
"171.6000","57.2005","0.0492"
"171.8000","57.2675","0.0493"
"172.0000","57.3341","0.0493"
"172.2000","57.4008","0.0493"
"172.4000","57.4671","0.0494"
"172.6000","57.5340","0.0495"
"172.8000","57.6007","0.0496"
"173.0000","57.6675","0.0497"
"173.2000","57.7340","0.0498"
"173.4000","57.8004","0.0499"
"173.6000","57.8673","0.0500"
"173.8000","57.9343","0.0502"
"174.0000","58.0008","0.0502"
"174.2000","58.0675","0.0503"
"174.4000","58.1336","0.0504"
"174.6000","58.2009","0.0504"
"174.8000","58.2675","0.0505"
"175.0000","58.3341","0.0505"
"175.2000","58.4008","0.0505"
"175.4000","58.4671","0.0505"
"175.6000","58.5340","0.0506"
"175.8000","58.6008","0.0507"
"176.0000","58.6675","0.0507"
"176.2000","58.7341","0.0508"
"176.4000","58.8001","0.0509"
"176.6000","58.8675","0.0510"
"176.8000","58.9343","0.0511"
"177.0000","59.0009","0.0512"
"177.2000","59.0673","0.0514"
"177.4000","59.1336","0.0515"
"177.6000","59.2007","0.0516"
"177.8000","59.2675","0.0518"
"178.0000","59.3343","0.0519"
"178.2000","59.4007","0.0520"
"178.4000","59.4672","0.0522"
"178.6000","59.5340","0.0523"
"178.8000","59.6007","0.0524"
"179.0000","59.6675","0.0526"
"179.2000","59.7341","0.0527"
"179.4000","59.8008","0.0528"
"179.6000","59.8673","0.0529"
"179.8000","59.9341","0.0530"
"180.0000","60.0008","0.0531"
"180.2000","60.0675","0.0531"
"180.4000","60.1340","0.0532"
"180.6000","60.2008","0.0533"
"180.8000","60.2673","0.0534"
"181.0000","60.3341","0.0535"
"181.2000","60.4007","0.0536"
"181.4000","60.4673","0.0538"
"181.6000","60.5340","0.0539"
"181.8000","60.6008","0.0540"
"182.0000","60.6672","0.0540"
"182.2000","60.7340","0.0541"
"182.4000","60.8007","0.0541"
"182.6000","60.8673","0.0541"
"182.8000","60.9340","0.0541"
"183.0000","61.0007","0.0542"
"183.2000","61.0675","0.0542"
"183.4000","61.1341","0.0543"
"183.6000","61.2007","0.0545"
"183.8000","61.2673","0.0546"
"184.0000","61.3340","0.0546"
"184.2000","61.4008","0.0548"
"184.4000","61.4672","0.0549"
"184.6000","61.5339","0.0550"
"184.8000","61.6007","0.0551"
"185.0000","61.6675","0.0552"
"185.2000","61.7340","0.0553"
"185.4000","61.8007","0.0553"
"185.6000","61.8672","0.0554"
"185.8000","61.9341","0.0554"
"186.0000","62.0007","0.0555"
"186.2000","62.0673","0.0556"
"186.4000","62.1340","0.0557"
"186.6000","62.2008","0.0558"
"186.8000","62.2672","0.0559"
"187.0000","62.3340","0.0559"
"187.2000","62.4007","0.0560"
"187.4000","62.4675","0.0561"
"187.6000","62.5340","0.0562"
"187.8000","62.6007","0.0563"
"188.0000","62.6673","0.0564"
"188.2000","62.7341","0.0565"
"188.4000","62.8005","0.0565"
"188.6000","62.8673","0.0566"
"188.8000","62.9340","0.0566"
"189.0000","63.0008","0.0567"
"189.2000","63.0673","0.0566"
"189.4000","63.1340","0.0567"
"189.6000","63.2007","0.0566"
"189.8000","63.2675","0.0565"
"190.0000","63.3340","0.0565"
"190.2000","63.4007","0.0566"
"190.4000","63.4673","0.0566"
"190.6000","63.5341","0.0566"
"190.8000","63.6007","0.0566"
"191.0000","63.6673","0.0567"
"191.2000","63.7340","0.0568"
"191.4000","63.8008","0.0570"
"191.6000","63.8673","0.0571"
"191.8000","63.9340","0.0572"
"192.0000","64.0005","0.0573"
"192.2000","64.0675","0.0574"
"192.4000","64.1340","0.0575"
"192.6000","64.2008","0.0576"
"192.8000","64.2675","0.0576"
"193.0000","64.3341","0.0577"
"193.2000","64.4005","0.0577"
"193.4000","64.4675","0.0579"
"193.6000","64.5340","0.0580"
"193.8000","64.6007","0.0581"
"194.0000","64.6673","0.0582"
"194.2000","64.7339","0.0583"
"194.4000","64.8008","0.0584"
"194.6000","64.8675","0.0585"
"194.8000","64.9340","0.0586"
"195.0000","65.0008","0.0586"
"195.2000","65.0671","0.0587"
"195.4000","65.1341","0.0587"
"195.6000","65.2007","0.0587"
"195.8000","65.2674","0.0588"
"196.0000","65.3341","0.0588"
"196.2000","65.4007","0.0588"
"196.4000","65.4673","0.0589"
"196.6000","65.5340","0.0589"
"196.8000","65.6007","0.0589"
"197.0000","65.6674","0.0589"
"197.2000","65.7339","0.0588"
"197.4000","65.8008","0.0588"
"197.6000","65.8675","0.0587"
"197.8000","65.9343","0.0585"
"198.0000","66.0007","0.0583"
"198.2000","66.0672","0.0580"
"198.4000","66.1340","0.0579"
"198.6000","66.2008","0.0577"
"198.8000","66.2673","0.0576"
"199.0000","66.3340","0.0576"
"199.2000","66.4007","0.0577"
"199.4000","66.4675","0.0578"
"199.6000","66.5339","0.0579"
"199.8000","66.6008","0.0580"
"200.0000","66.6674","0.0582"
"200.2000","66.7341","0.0583"
"200.4000","66.8005","0.0585"
"200.6000","66.8675","0.0586"
"200.8000","66.9341","0.0588"
"201.0000","67.0009","0.0590"
"201.2000","67.0675","0.0592"
"201.4000","67.1340","0.0593"
"201.6000","67.2005","0.0594"
"201.8000","67.2675","0.0595"
"202.0000","67.3340","0.0597"
"202.2000","67.4007","0.0598"
"202.4000","67.4675","0.0599"
"202.6000","67.5341","0.0600"
"202.8000","67.6007","0.0601"
"203.0000","67.6673","0.0602"
"203.2000","67.7340","0.0602"
"203.4000","67.8008","0.0602"
"203.6000","67.8673","0.0603"
"203.8000","67.9340","0.0603"
"204.0000","68.0008","0.0604"
"204.2000","68.0673","0.0604"
"204.4000","68.1340","0.0605"
"204.6000","68.2007","0.0606"
"204.8000","68.2673","0.0607"
"205.0000","68.3341","0.0608"
"205.2000","68.4007","0.0609"
"205.4000","68.4672","0.0611"
"205.6000","68.5341","0.0612"
"205.8000","68.6007","0.0614"
"206.0000","68.6673","0.0614"
"206.2000","68.7340","0.0615"
"206.4000","68.8005","0.0616"
"206.6000","68.8675","0.0617"
"206.8000","68.9339","0.0618"
"207.0000","69.0007","0.0620"
"207.2000","69.0673","0.0621"
"207.4000","69.1341","0.0622"
"207.6000","69.2005","0.0624"
"207.8000","69.2673","0.0625"
"208.0000","69.3339","0.0626"
"208.2000","69.4008","0.0627"
"208.4000","69.4673","0.0627"
"208.6000","69.5340","0.0628"
"208.8000","69.6007","0.0628"
"209.0000","69.6674","0.0627"
"209.2000","69.7338","0.0626"
"209.4000","69.8007","0.0626"
"209.6000","69.8672","0.0625"
"209.8000","69.9341","0.0625"
"210.0000","70.0007","0.0625"
"210.2000","70.0673","0.0625"
"210.4000","70.1341","0.0625"
"210.6000","70.2008","0.0626"
"210.8000","70.2673","0.0627"
"211.0000","70.3340","0.0628"
"211.2000","70.4007","0.0628"
"211.4000","70.4675","0.0630"
"211.6000","70.5339","0.0630"
"211.8000","70.6008","0.0631"
"212.0000","70.6674","0.0632"
"212.2000","70.7341","0.0633"
"212.4000","70.8007","0.0635"
"212.6000","70.8673","0.0637"
"212.8000","70.9340","0.0639"
"213.0000","71.0008","0.0641"
"213.2000","71.0673","0.0642"
"213.4000","71.1340","0.0644"
"213.6000","71.2008","0.0646"
"213.8000","71.2675","0.0648"
"214.0000","71.3339","0.0650"
"214.2000","71.4007","0.0652"
"214.4000","71.4673","0.0653"
"214.6000","71.5341","0.0655"
"214.8000","71.6007","0.0656"
"215.0000","71.6673","0.0658"
"215.2000","71.7341","0.0659"
"215.4000","71.8007","0.0660"
"215.6000","71.8673","0.0661"
"215.8000","71.9341","0.0662"
"216.0000","72.0007","0.0663"
"216.2000","72.0673","0.0663"
"216.4000","72.1340","0.0664"
"216.6000","72.2008","0.0663"
"216.8000","72.2674","0.0662"
"217.0000","72.3341","0.0662"
"217.2000","72.4004","0.0662"
"217.4000","72.4673","0.0661"
"217.6000","72.5341","0.0660"
"217.8000","72.6008","0.0659"
"218.0000","72.6673","0.0658"
"218.2000","72.7340","0.0656"
"218.4000","72.8007","0.0654"
"218.6000","72.8675","0.0651"
"218.8000","72.9339","0.0649"
"219.0000","73.0007","0.0646"
"219.2000","73.0672","0.0644"
"219.4000","73.1343","0.0642"
"219.6000","73.2007","0.0641"
"219.8000","73.2673","0.0640"
"220.0000","73.3341","0.0640"
"220.2000","73.4007","0.0640"
"220.4000","73.4675","0.0640"
"220.6000","73.5340","0.0641"
"220.8000","73.6007","0.0641"
"221.0000","73.6674","0.0642"
"221.2000","73.7338","0.0643"
"221.4000","73.8007","0.0644"
"221.6000","73.8673","0.0645"
"221.8000","73.9341","0.0646"
"222.0000","74.0007","0.0648"
"222.2000","74.0673","0.0648"
"222.4000","74.1339","0.0650"
"222.6000","74.2008","0.0651"
"222.8000","74.2673","0.0652"
"223.0000","74.3340","0.0654"
"223.2000","74.4008","0.0655"
"223.4000","74.4675","0.0657"
"223.6000","74.5339","0.0658"
"223.8000","74.6007","0.0659"
"224.0000","74.6673","0.0661"
"224.2000","74.7341","0.0663"
"224.4000","74.8007","0.0664"
"224.6000","74.8675","0.0665"
"224.8000","74.9340","0.0666"
"225.0000","75.0008","0.0668"
"225.2000","75.0673","0.0670"
"225.4000","75.1340","0.0672"
"225.6000","75.2007","0.0673"
"225.8000","75.2675","0.0675"
"226.0000","75.3340","0.0677"
"226.2000","75.4007","0.0679"
"226.4000","75.4673","0.0682"
"226.6000","75.5341","0.0684"
"226.8000","75.6007","0.0686"
"227.0000","75.6673","0.0688"
"227.2000","75.7340","0.0690"
"227.4000","75.8007","0.0691"
"227.6000","75.8673","0.0693"
"227.8000","75.9340","0.0694"
"228.0000","76.0007","0.0695"
"228.2000","76.0673","0.0696"
"228.4000","76.1340","0.0697"
"228.6000","76.2007","0.0698"
"228.8000","76.2673","0.0698"
"229.0000","76.3341","0.0697"
"229.2000","76.4008","0.0696"
"229.4000","76.4673","0.0696"
"229.6000","76.5341","0.0694"
"229.8000","76.6008","0.0693"
"230.0000","76.6672","0.0692"
"230.2000","76.7340","0.0691"
"230.4000","76.8007","0.0688"
"230.6000","76.8673","0.0687"
"230.8000","76.9340","0.0685"
"231.0000","77.0007","0.0684"
"231.2000","77.0673","0.0683"
"231.4000","77.1340","0.0682"
"231.6000","77.2007","0.0681"
"231.8000","77.2675","0.0680"
"232.0000","77.3340","0.0678"
"232.2000","77.4007","0.0678"
"232.4000","77.4673","0.0676"
"232.6000","77.5340","0.0676"
"232.8000","77.6008","0.0677"
"233.0000","77.6674","0.0677"
"233.2000","77.7340","0.0678"
"233.4000","77.8007","0.0678"
"233.6000","77.8673","0.0679"
"233.8000","77.9341","0.0681"
"234.0000","78.0005","0.0682"
"234.2000","78.0673","0.0682"
"234.4000","78.1341","0.0683"
"234.6000","78.2008","0.0684"
"234.8000","78.2673","0.0685"
"235.0000","78.3340","0.0686"
"235.2000","78.4007","0.0687"
"235.4000","78.4675","0.0688"
"235.6000","78.5340","0.0690"
"235.8000","78.6005","0.0691"
"236.0000","78.6673","0.0692"
"236.2000","78.7341","0.0694"
"236.4000","78.8007","0.0695"
"236.6000","78.8673","0.0696"
"236.8000","78.9340","0.0697"
"237.0000","79.0008","0.0697"
"237.2000","79.0673","0.0698"
"237.4000","79.1341","0.0699"
"237.6000","79.2007","0.0701"
"237.8000","79.2675","0.0703"
"238.0000","79.3337","0.0705"
"238.2000","79.4007","0.0706"
"238.4000","79.4673","0.0708"
"238.6000","79.5341","0.0710"
"238.8000","79.6007","0.0712"
"239.0000","79.6671","0.0714"
"239.2000","79.7340","0.0716"
"239.4000","79.8009","0.0718"
"239.6000","79.8673","0.0720"
"239.8000","79.9340","0.0721"
"240.0000","80.0003","0.0722"
"240.2000","80.0675","0.0724"
"240.4000","80.1341","0.0725"
"240.6000","80.2008","0.0725"
"240.8000","80.2674","0.0725"
"241.0000","80.3339","0.0725"
"241.2000","80.4005","0.0723"
"241.4000","80.4673","0.0722"
"241.6000","80.5341","0.0718"
"241.8000","80.6008","0.0713"
"242.0000","80.6669","0.0707"
"242.2000","80.7340","0.0697"
"242.4000","80.8008","0.0685"
"242.6000","80.8675","0.0677"
"242.8000","80.9340","0.0674"
"243.0000","81.0005","0.0673"
"243.2000","81.0672","0.0673"
"243.4000","81.1341","0.0675"
"243.6000","81.2008","0.0677"
"243.8000","81.2675","0.0680"
"244.0000","81.3340","0.0682"
"244.2000","81.4009","0.0685"
"244.4000","81.4673","0.0688"
"244.6000","81.5341","0.0691"
"244.8000","81.6008","0.0694"
"245.0000","81.6674","0.0698"
"245.2000","81.7340","0.0701"
"245.4000","81.8007","0.0705"
"245.6000","81.8675","0.0708"
"245.8000","81.9341","0.0711"
"246.0000","82.0006","0.0714"
"246.2000","82.0673","0.0716"
"246.4000","82.1340","0.0719"
"246.6000","82.2008","0.0721"
"246.8000","82.2673","0.0723"
"247.0000","82.3340","0.0726"
"247.2000","82.4008","0.0728"
"247.4000","82.4673","0.0730"
"247.6000","82.5339","0.0731"
"247.8000","82.6007","0.0732"
"248.0000","82.6673","0.0734"
"248.2000","82.7341","0.0736"
"248.4000","82.8005","0.0738"
"248.6000","82.8675","0.0740"
"248.8000","82.9341","0.0742"
"249.0000","83.0008","0.0744"
"249.2000","83.0673","0.0746"
"249.4000","83.1340","0.0748"
"249.6000","83.2007","0.0749"
"249.8000","83.2674","0.0751"
"250.0000","83.3340","0.0752"
"250.2000","83.4007","0.0754"
"250.4000","83.4675","0.0755"
"250.6000","83.5341","0.0756"
"250.8000","83.6007","0.0756"
"251.0000","83.6672","0.0757"
"251.2000","83.7339","0.0758"
"251.4000","83.8009","0.0759"
"251.6000","83.8673","0.0760"
"251.8000","83.9340","0.0761"
"252.0000","84.0008","0.0762"
"252.2000","84.0675","0.0763"
"252.4000","84.1340","0.0764"
"252.6000","84.2007","0.0765"
"252.8000","84.2672","0.0766"
"253.0000","84.3340","0.0767"
"253.2000","84.4007","0.0767"
"253.4000","84.4673","0.0768"
"253.6000","84.5340","0.0769"
"253.8000","84.6009","0.0770"
"254.0000","84.6672","0.0771"
"254.2000","84.7340","0.0772"
"254.4000","84.8007","0.0773"
"254.6000","84.8673","0.0773"
"254.8000","84.9340","0.0774"
"255.0000","85.0007","0.0775"
"255.2000","85.0675","0.0776"
"255.4000","85.1341","0.0777"
"255.6000","85.2005","0.0777"
"255.8000","85.2673","0.0778"
"256.0000","85.3340","0.0779"
"256.2000","85.4008","0.0779"
"256.4000","85.4673","0.0780"
"256.6000","85.5340","0.0780"
"256.8000","85.6008","0.0780"
"257.0000","85.6674","0.0781"
"257.2000","85.7340","0.0780"
"257.4000","85.8007","0.0780"
"257.6000","85.8672","0.0780"
"257.8000","85.9341","0.0781"
"258.0000","86.0008","0.0781"
"258.2000","86.0673","0.0782"
"258.4000","86.1340","0.0783"
"258.6000","86.2008","0.0783"
"258.8000","86.2672","0.0784"
"259.0000","86.3341","0.0785"
"259.2000","86.4007","0.0786"
"259.4000","86.4676","0.0786"
"259.6000","86.5340","0.0787"
"259.8000","86.6005","0.0788"
"260.0000","86.6673","0.0789"
"260.2000","86.7341","0.0790"
"260.4000","86.8008","0.0791"
"260.6000","86.8675","0.0792"
"260.8000","86.9337","0.0794"
"261.0000","87.0008","0.0794"
"261.2000","87.0673","0.0796"
"261.4000","87.1341","0.0796"
"261.6000","87.2008","0.0798"
"261.8000","87.2673","0.0799"
"262.0000","87.3340","0.0799"
"262.2000","87.4008","0.0801"
"262.4000","87.4675","0.0802"
"262.6000","87.5341","0.0803"
"262.8000","87.6007","0.0804"
"263.0000","87.6674","0.0805"
"263.2000","87.7341","0.0805"
"263.4000","87.8008","0.0805"
"263.6000","87.8673","0.0804"
"263.8000","87.9340","0.0805"
"264.0000","88.0007","0.0804"
"264.2000","88.0675","0.0803"
"264.4000","88.1339","0.0802"
"264.6000","88.2008","0.0801"
"264.8000","88.2675","0.0800"
"265.0000","88.3340","0.0801"
"265.2000","88.4007","0.0800"
"265.4000","88.4673","0.0800"
"265.6000","88.5340","0.0800"
"265.8000","88.6008","0.0800"
"266.0000","88.6673","0.0799"
"266.2000","88.7340","0.0798"
"266.4000","88.8007","0.0797"
"266.6000","88.8673","0.0796"
"266.8000","88.9340","0.0796"
"267.0000","89.0006","0.0796"
"267.2000","89.0673","0.0795"
"267.4000","89.1340","0.0795"
"267.6000","89.2007","0.0795"
"267.8000","89.2675","0.0795"
"268.0000","89.3340","0.0795"
"268.2000","89.4008","0.0793"
"268.4000","89.4672","0.0789"
"268.6000","89.5340","0.0787"
"268.8000","89.6007","0.0785"
"269.0000","89.6675","0.0784"
"269.2000","89.7340","0.0784"
"269.4000","89.8008","0.0785"
"269.6000","89.8674","0.0787"
"269.8000","89.9341","0.0788"
"270.0000","90.0005","0.0789"
"270.2000","90.0672","0.0791"
"270.4000","90.1340","0.0791"
"270.6000","90.2008","0.0792"
"270.8000","90.2673","0.0793"
"271.0000","90.3341","0.0794"
"271.2000","90.4007","0.0795"
"271.4000","90.4675","0.0795"
"271.6000","90.5340","0.0796"
"271.8000","90.6007","0.0796"
"272.0000","90.6672","0.0796"
"272.2000","90.7341","0.0796"
"272.4000","90.8007","0.0796"
"272.6000","90.8673","0.0796"
"272.8000","90.9341","0.0796"
"273.0000","91.0008","0.0797"
"273.2000","91.0672","0.0797"
"273.4000","91.1340","0.0797"
"273.6000","91.2007","0.0797"
"273.8000","91.2676","0.0797"
"274.0000","91.3340","0.0797"
"274.2000","91.4008","0.0797"
"274.4000","91.4675","0.0797"
"274.6000","91.5341","0.0798"
"274.8000","91.6008","0.0799"
"275.0000","91.6673","0.0800"
"275.2000","91.7340","0.0801"
"275.4000","91.8008","0.0803"
"275.6000","91.8673","0.0803"
"275.8000","91.9341","0.0804"
"276.0000","92.0007","0.0806"
"276.2000","92.0675","0.0807"
"276.4000","92.1340","0.0808"
"276.6000","92.2005","0.0809"
"276.8000","92.2673","0.0809"
"277.0000","92.3341","0.0809"
"277.2000","92.4005","0.0809"
"277.4000","92.4673","0.0809"
"277.6000","92.5340","0.0809"
"277.8000","92.6008","0.0810"
"278.0000","92.6673","0.0811"
"278.2000","92.7341","0.0811"
"278.4000","92.8005","0.0812"
"278.6000","92.8673","0.0813"
"278.8000","92.9339","0.0813"
"279.0000","93.0008","0.0813"
"279.2000","93.0675","0.0814"
"279.4000","93.1341","0.0815"
"279.6000","93.2007","0.0817"
"279.8000","93.2673","0.0818"
"280.0000","93.3340","0.0820"
"280.2000","93.4008","0.0822"
"280.4000","93.4675","0.0824"
"280.6000","93.5340","0.0825"
"280.8000","93.6007","0.0826"
"281.0000","93.6673","0.0827"
"281.2000","93.7340","0.0826"
"281.4000","93.8007","0.0826"
"281.6000","93.8673","0.0825"
"281.8000","93.9341","0.0824"
"282.0000","94.0007","0.0823"
"282.2000","94.0675","0.0822"
"282.4000","94.1341","0.0822"
"282.6000","94.2007","0.0821"
"282.8000","94.2672","0.0820"
"283.0000","94.3340","0.0819"
"283.2000","94.4007","0.0817"
"283.4000","94.4676","0.0814"
"283.6000","94.5340","0.0812"
"283.8000","94.6007","0.0808"
"283.8880","94.6300","0.0452"